Block_type,instruction_text,pTrials.thisRepN,pTrials.thisTrialN,pTrials.thisN,pTrials.thisIndex,pTrials_slow.thisRepN,pTrials_slow.thisTrialN,pTrials_slow.thisN,pTrials_slow.thisIndex,pTrials_fast.thisRepN,pTrials_fast.thisTrialN,pTrials_fast.thisN,pTrials_fast.thisIndex,blocks.thisRepN,blocks.thisTrialN,blocks.thisN,blocks.thisIndex,trials.thisRepN,trials.thisTrialN,trials.thisN,trials.thisIndex,X Scale,Y Scale,key_resp_10.keys,key_resp_10.rt,prePrac1Resp.keys,prePrac1Resp.corr,prePrac1Resp.rt,prePrac2_fixResp.keys,prePrac2_fixResp.corr,prePrac2_fixResp.rt,prePrac2_imgResp.keys,prePrac2_imgResp.corr,prePrac2_imgResp.rt,pfix_switches,Pside,ptrial_type1S0D,ptarget,pprobe,prac_resp.keys,prac_resp.corr,prac_resp.rt,prac_fix_resp.keys,prac_fix_resp.corr,prac_fix_resp.rt,prac_fix_resp_fast.keys,prac_fix_resp_fast.corr,prac_resp2.keys,prac_resp2.corr,prac_resp2.rt,prac_fix_resp_fast.rt,fix_switches,side,trial_type1S0D,target,probe,block_type,key_resp.keys,key_resp.corr,key_resp.rt,ITI_fix_cross.started,ITI_fix_cross.stopped,fix_resp.keys,fix_resp.started,fix_resp.stopped,fix_resp.rt,participant,design,position,date,expName,psychopyVersion,frameRate,winSize,
,,,,,,,,,,,,,,,,,,,,,,0.05,0.05,space,0.46710566408000886,,,,,,,,,,,,,,,,,,,,,,,,,,,,,,,,,,,,,,,,,,,1,2,2020_Nov_27_2117,configural_featural,2020.2.4,None,[3584 2240],
,,,,,,,,,,,,,,,,,,,,,,,,,,j,1,0.5824282008688897,,,,,,,,,,,,,,,,,,,,,,,,,,,,,,,,,,,,,,,,1,2,2020_Nov_27_2117,configural_featural,2020.2.4,None,[3584 2240],
,,,,,,,,,,,,,,,,,,,,,,,,,,,,,space,1,0.6523274979554117,,,,,,,,,,,,,,,,,,,,,,,,,,,,,,,,,,,,,1,2,2020_Nov_27_2117,configural_featural,2020.2.4,None,[3584 2240],
,,,,,,,,,,,,,,,,,,,,,,,,,,,,,,,,f,1,0.38177544088102877,,,,,,,,,,,,,,,,,,,,,,,,,,,,,,,,,,1,2,2020_Nov_27_2117,configural_featural,2020.2.4,None,[3584 2240],
,,0,0,0,0,0,0,0,0,,,,,,,,,,,,,,,,,,,,,,,,,,0,0.17380935298900002,0,Stimuli/f142.png,Stimuli/f142.png,f,1,0.6302088720258325,None,1,,,,,,,,,,,,,,,,,,,,,,,,1,2,2020_Nov_27_2117,configural_featural,2020.2.4,None,[3584 2240],
,,0,0,0,0,1,0,1,0,,,,,,,,,,,,,,,,,,,,,,,,,,0,0.17380935298900002,1,Stimuli/eimd.png,Stimuli/eumu.png,f,0,0.5589256819803268,None,1,,,,,,,,,,,,,,,,,,,,,,,,1,2,2020_Nov_27_2117,configural_featural,2020.2.4,None,[3584 2240],
,,0,0,0,0,2,0,2,0,,,,,,,,,,,,,,,,,,,,,,,,,,1,0.17380935298900002,0,Stimuli/edmd.png,Stimuli/edmd.png,f,1,0.7034871049690992,space,1,1.0138157051987946,,,,,,,,,,,,,,,,,,,,,,,1,2,2020_Nov_27_2117,configural_featural,2020.2.4,None,[3584 2240],
,,0,0,0,0,3,0,3,0,,,,,,,,,,,,,,,,,,,,,,,,,,0,0.17380935298900002,1,Stimuli/eomu.png,Stimuli/f24.png,j,1,0.8708488780539483,None,1,,,,,,,,,,,,,,,,,,,,,,,,1,2,2020_Nov_27_2117,configural_featural,2020.2.4,None,[3584 2240],
,,0,0,0,0,,,,,0,0,0,0,,,,,,,,,,,,,,,,,,,,,,0,0.17380935298900002,0,Stimuli/eumu.png,Stimuli/eumu.png,,,,,,,None,1,f,1,0.4857803469058126,,,,,,,,,,,,,,,,,,1,2,2020_Nov_27_2117,configural_featural,2020.2.4,None,[3584 2240],
,,0,0,0,0,,,,,1,0,1,0,,,,,,,,,,,,,,,,,,,,,,0,-0.17380935298900002,1,Stimuli/f131.png,Stimuli/f15.png,,,,,,,None,1,j,1,0.802531577879563,,,,,,,,,,,,,,,,,,1,2,2020_Nov_27_2117,configural_featural,2020.2.4,None,[3584 2240],
,,0,0,0,0,,,,,2,0,2,0,,,,,,,,,,,,,,,,,,,,,,1,-0.17380935298900002,0,Stimuli/eomu.png,Stimuli/eomu.png,,,,,,,space,1,f,1,0.6619210329372436,1.1879599308595061,,,,,,,,,,,,,,,,,1,2,2020_Nov_27_2117,configural_featural,2020.2.4,None,[3584 2240],
,,0,0,0,0,,,,,3,0,3,0,,,,,,,,,,,,,,,,,,,,,,0,0.17380935298900002,1,Stimuli/f15.png,Stimuli/f24.png,,,,,,,None,1,j,1,0.5803471659310162,,,,,,,,,,,,,,,,,,1,2,2020_Nov_27_2117,configural_featural,2020.2.4,None,[3584 2240],
,,1,0,1,0,0,0,0,0,,,,,,,,,,,,,,,,,,,,,,,,,,0,-0.17380935298900002,0,Stimuli/H7sim0.png,Stimuli/H7sim0.png,f,1,0.877222933806479,None,1,,,,,,,,,,,,,,,,,,,,,,,,1,2,2020_Nov_27_2117,configural_featural,2020.2.4,None,[3584 2240],
,,1,0,1,0,1,0,1,0,,,,,,,,,,,,,,,,,,,,,,,,,,1,-0.17380935298900002,1,Stimuli/H5sim0.png,Stimuli/H6sim0.png,j,1,0.6800442771054804,space,1,1.2174230839591473,,,,,,,,,,,,,,,,,,,,,,,1,2,2020_Nov_27_2117,configural_featural,2020.2.4,None,[3584 2240],
,,1,0,1,0,2,0,2,0,,,,,,,,,,,,,,,,,,,,,,,,,,0,0.17380935298900002,0,Stimuli/H-8sim0.png,Stimuli/H-8sim0.png,f,1,0.7688483709935099,None,1,,,,,,,,,,,,,,,,,,,,,,,,1,2,2020_Nov_27_2117,configural_featural,2020.2.4,None,[3584 2240],
,,1,0,1,0,3,0,3,0,,,,,,,,,,,,,,,,,,,,,,,,,,0,0.17380935298900002,1,Stimuli/H8sim0.png,Stimuli/H5sim0.png,j,1,0.5899318580050021,None,1,,,,,,,,,,,,,,,,,,,,,,,,1,2,2020_Nov_27_2117,configural_featural,2020.2.4,None,[3584 2240],
,,1,0,1,0,,,,,0,0,0,0,,,,,,,,,,,,,,,,,,,,,,0,-0.17380935298900002,0,Stimuli/H-8sim3.png,Stimuli/H-8sim3.png,,,,,,,None,1,j,0,0.46458438294939697,,,,,,,,,,,,,,,,,,1,2,2020_Nov_27_2117,configural_featural,2020.2.4,None,[3584 2240],
,,1,0,1,0,,,,,1,0,1,0,,,,,,,,,,,,,,,,,,,,,,1,-0.17380935298900002,1,Stimuli/H7sim0.png,Stimuli/H-8sim0.png,,,,,,,space,1,j,1,0.4986712150275707,1.2898704779800028,,,,,,,,,,,,,,,,,1,2,2020_Nov_27_2117,configural_featural,2020.2.4,None,[3584 2240],
,,1,0,1,0,,,,,2,0,2,0,,,,,,,,,,,,,,,,,,,,,,0,-0.17380935298900002,0,Stimuli/H-8sim2.png,Stimuli/H-8sim2.png,,,,,,,None,1,f,1,0.46634114696644247,,,,,,,,,,,,,,,,,,1,2,2020_Nov_27_2117,configural_featural,2020.2.4,None,[3584 2240],
,,1,0,1,0,,,,,3,0,3,0,,,,,,,,,,,,,,,,,,,,,,0,-0.17380935298900002,1,Stimuli/H8sim0.png,Stimuli/H-8sim3.png,,,,,,,None,1,j,1,0.5879673939198256,,,,,,,,,,,,,,,,,,1,2,2020_Nov_27_2117,configural_featural,2020.2.4,None,[3584 2240],
conf_face,Designs/instructions_face_1234.png,,,,,,,,,,,,,0,0,0,0,0,0,0,0,,,,,,,,,,,,,,,,,,,,,,,,,,,,,,,0,-0.17380935298900002,1.0,Stimuli/edmd.png,Stimuli/edmd.png,conf_face,f,1,0.3851112041156739,198.76223531505093,None,None,198.76223531505093,None,,,1,2,2020_Nov_27_2117,configural_featural,2020.2.4,None,[3584 2240],
conf_face,Designs/instructions_face_1234.png,,,,,,,,,,,,,0,0,0,0,1,0,1,0,,,,,,,,,,,,,,,,,,,,,,,,,,,,,,,0,-0.17380935298900002,0.0,Stimuli/eimd.png,Stimuli/eomu.png,conf_face,f,0,0.24437944404780865,201.47876279009506,None,None,201.47876279009506,None,,,1,2,2020_Nov_27_2117,configural_featural,2020.2.4,None,[3584 2240],
conf_face,Designs/instructions_face_1234.png,,,,,,,,,,,,,0,0,0,0,2,0,2,0,,,,,,,,,,,,,,,,,,,,,,,,,,,,,,,0,-0.17380935298900002,1.0,Stimuli/eimd.png,Stimuli/eimd.png,conf_face,f,1,0.31236595613881946,204.1622091771569,None,None,204.1622091771569,None,,,1,2,2020_Nov_27_2117,configural_featural,2020.2.4,None,[3584 2240],
conf_face,Designs/instructions_face_1234.png,,,,,,,,,,,,,0,0,0,0,3,0,3,0,,,,,,,,,,,,,,,,,,,,,,,,,,,,,,,1,-0.17380935298900002,0.0,Stimuli/eumu.png,Stimuli/edmd.png,conf_face,j,1,0.5388093220535666,206.94547209702432,None,space,206.94547209702432,None,0.7236006441526115,,1,2,2020_Nov_27_2117,configural_featural,2020.2.4,None,[3584 2240],
conf_face,Designs/instructions_face_1234.png,,,,,,,,,,,,,0,0,0,0,4,0,4,0,,,,,,,,,,,,,,,,,,,,,,,,,,,,,,,0,-0.17380935298900002,1.0,Stimuli/eumu.png,Stimuli/eumu.png,conf_face,f,1,0.31408079992979765,209.3786941920407,None,None,209.3786941920407,None,,,1,2,2020_Nov_27_2117,configural_featural,2020.2.4,None,[3584 2240],
conf_face,Designs/instructions_face_1234.png,,,,,,,,,,,,,0,0,0,0,5,0,5,0,,,,,,,,,,,,,,,,,,,,,,,,,,,,,,,0,-0.17380935298900002,0.0,Stimuli/eumu.png,Stimuli/eimd.png,conf_face,j,1,0.4140480859205127,212.0283893251326,None,None,212.0283893251326,None,,,1,2,2020_Nov_27_2117,configural_featural,2020.2.4,None,[3584 2240],
conf_face,Designs/instructions_face_1234.png,,,,,,,,,,,,,0,0,0,0,6,0,6,0,,,,,,,,,,,,,,,,,,,,,,,,,,,,,,,0,-0.17380935298900002,0.0,Stimuli/edmd.png,Stimuli/eumu.png,conf_face,j,1,0.311712509021163,214.69529578415677,None,None,214.69529578415677,None,,,1,2,2020_Nov_27_2117,configural_featural,2020.2.4,None,[3584 2240],
conf_face,Designs/instructions_face_1234.png,,,,,,,,,,,,,0,0,0,0,7,0,7,0,,,,,,,,,,,,,,,,,,,,,,,,,,,,,,,1,-0.17380935298900002,0.0,Stimuli/edmd.png,Stimuli/eimd.png,conf_face,j,1,0.4330992449540645,217.34527153614908,None,space,217.34527153614908,None,0.5311589899938554,,1,2,2020_Nov_27_2117,configural_featural,2020.2.4,None,[3584 2240],
conf_face,Designs/instructions_face_1234.png,,,,,,,,,,,,,0,0,0,0,8,0,8,0,,,,,,,,,,,,,,,,,,,,,,,,,,,,,,,0,-0.17380935298900002,1.0,Stimuli/eomu.png,Stimuli/eomu.png,conf_face,j,0,0.5683776088990271,220.02891878201626,None,None,220.02891878201626,None,,,1,2,2020_Nov_27_2117,configural_featural,2020.2.4,None,[3584 2240],
conf_face,Designs/instructions_face_1234.png,,,,,,,,,,,,,0,0,0,0,9,0,9,0,,,,,,,,,,,,,,,,,,,,,,,,,,,,,,,0,-0.17380935298900002,0.0,Stimuli/eumu.png,Stimuli/eomu.png,conf_face,j,1,0.4799274620600045,222.612113713054,None,None,222.612113713054,None,,,1,2,2020_Nov_27_2117,configural_featural,2020.2.4,None,[3584 2240],
conf_face,Designs/instructions_face_1234.png,,,,,,,,,,,,,0,0,0,0,10,0,10,0,,,,,,,,,,,,,,,,,,,,,,,,,,,,,,,1,-0.17380935298900002,1.0,Stimuli/edmd.png,Stimuli/edmd.png,conf_face,f,1,0.4632810859475285,225.5453065331094,None,space,225.5453065331094,None,0.6384297148324549,,1,2,2020_Nov_27_2117,configural_featural,2020.2.4,None,[3584 2240],
conf_face,Designs/instructions_face_1234.png,,,,,,,,,,,,,0,0,0,0,11,0,11,0,,,,,,,,,,,,,,,,,,,,,,,,,,,,,,,0,-0.17380935298900002,1.0,Stimuli/eumu.png,Stimuli/eumu.png,conf_face,f,1,2.0966605509165674,229.79534585308284,None,None,229.79534585308284,None,,,1,2,2020_Nov_27_2117,configural_featural,2020.2.4,None,[3584 2240],
conf_face,Designs/instructions_face_1234.png,,,,,,,,,,,,,0,0,0,0,12,0,12,0,,,,,,,,,,,,,,,,,,,,,,,,,,,,,,,0,-0.17380935298900002,0.0,Stimuli/eimd.png,Stimuli/eumu.png,conf_face,f,0,0.3949168659746647,232.5788066680543,None,None,232.5788066680543,None,,,1,2,2020_Nov_27_2117,configural_featural,2020.2.4,None,[3584 2240],
conf_face,Designs/instructions_face_1234.png,,,,,,,,,,,,,0,0,0,0,13,0,13,0,,,,,,,,,,,,,,,,,,,,,,,,,,,,,,,0,-0.17380935298900002,1.0,Stimuli/eimd.png,Stimuli/eimd.png,conf_face,j,0,0.3733416439499706,235.29529212904163,None,None,235.29529212904163,None,,,1,2,2020_Nov_27_2117,configural_featural,2020.2.4,None,[3584 2240],
conf_face,Designs/instructions_face_1234.png,,,,,,,,,,,,,0,0,0,0,14,0,14,0,,,,,,,,,,,,,,,,,,,,,,,,,,,,,,,0,-0.17380935298900002,1.0,Stimuli/eomu.png,Stimuli/eomu.png,conf_face,f,1,0.34559585293754935,238.12887116405182,None,None,238.12887116405182,None,,,1,2,2020_Nov_27_2117,configural_featural,2020.2.4,None,[3584 2240],
conf_face,Designs/instructions_face_1234.png,,,,,,,,,,,,,0,0,0,0,15,0,15,0,,,,,,,,,,,,,,,,,,,,,,,,,,,,,,,0,-0.17380935298900002,1.0,Stimuli/eumu.png,Stimuli/eumu.png,conf_face,j,0,0.49658546200953424,240.74581086006947,None,None,240.74581086006947,None,,,1,2,2020_Nov_27_2117,configural_featural,2020.2.4,None,[3584 2240],
conf_face,Designs/instructions_face_1234.png,,,,,,,,,,,,,0,0,0,0,16,0,16,0,,,,,,,,,,,,,,,,,,,,,,,,,,,,,,,1,-0.17380935298900002,0.0,Stimuli/edmd.png,Stimuli/eomu.png,conf_face,j,1,0.49379983986727893,243.37896847818047,None,space,243.37896847818047,None,0.6205831910483539,,1,2,2020_Nov_27_2117,configural_featural,2020.2.4,None,[3584 2240],
,,,,,,,,,,,,,,,,,,,,,,,,,,,,,,,,,,,,,,,,,,,,,,,,,,,,0,-0.17380935298900002,0.0,Stimuli/eomu.png,Stimuli/edmd.png,conf_face,f,0,0.20795915694907308,,,,,,,,,,,,,,,
