Block_type,instruction_text,pTrials.thisRepN,pTrials.thisTrialN,pTrials.thisN,pTrials.thisIndex,blocks.thisRepN,blocks.thisTrialN,blocks.thisN,blocks.thisIndex,trials.thisRepN,trials.thisTrialN,trials.thisN,trials.thisIndex,X Scale,Y Scale,image_6.started,image_6.stopped,text_8.started,text_8.stopped,image_7.started,image_7.stopped,prac_instr2.started,prac_instr2.stopped,prePrac1Resp.keys,prePrac1Resp.corr,prePrac1Resp.rt,prePrac1Resp.started,prePrac1Resp.stopped,image_8.started,image_8.stopped,text_9.started,text_9.stopped,image_9.started,image_9.stopped,prac_instr4.started,prac_instr4.stopped,key_resp_10.keys,key_resp_10.corr,key_resp_10.rt,key_resp_13.keys,key_resp_13.corr,key_resp_13.rt,key_resp_13.started,key_resp_13.stopped,pfix_switches,Pside,ptrial_type1S0D,ptarget,pprobe,image.started,image.stopped,text_6.started,text_6.stopped,image_2.started,image_2.stopped,text_7.started,text_7.stopped,prac_resp.keys,prac_resp.corr,prac_resp.rt,prac_resp.started,prac_resp.stopped,prac_fix_resp.keys,prac_fix_resp.corr,prac_fix_resp.started,prac_fix_resp.stopped,image_3.started,image_3.stopped,feedback_msg.started,feedback_msg.stopped,prac_fix_resp.rt,fix_switches,side,trial_type1S0D,target,probe,key_resp_3.keys,key_resp_4.keys,key_resp_5.keys,key_resp.keys,key_resp.corr,key_resp.rt,key_resp_6.keys,key_resp_6.started,key_resp_6.stopped,key_resp_6.rt,participant,design,position,date,expName,psychopyVersion,frameRate,
,,,,,,,,,,,,,,0.05,0.05,26.781613194034435,26.984901817981154,26.781613194034435,None,27.251589372055605,None,27.91819174797274,None,j,1,1.4675141489133239,27.91819174797274,None,,,,,,,,,,,,,,,,,,,,,,,,,,,,,,,,,,,,,,,,,,,,,,,,,,,,,,,,,,,,1,2,2020_Oct_30_0010,configural_featural,2020.2.4,None,
,,,,,,,,,,,,,,,,,,,,,,,,,,,,,37.395492493058555,37.60159879899584,37.395492493058555,None,37.868208533967845,None,38.03490472701378,None,space,1,2.4283125520450994,,,,,,,,,,,,,,,,,,,,,,,,,,,,,,,,,,,,,,,,,,,,,,,,,1,2,2020_Oct_30_0010,configural_featural,2020.2.4,None,
,,,,,,,,,,,,,,,,,,,,,,,,,,,,,,,,,,,,,,,,f,1,2.0458813830045983,38.03490472701378,None,,,,,,,,,,,,,,,,,,,,,,,,,,,,,,,,,,,,,,,,,,,,1,2,2020_Oct_30_0010,configural_featural,2020.2.4,None,
,,0,0,0,0,,,,,,,,,,,,,,,,,,,,,,,,,,,,,,,,,,,,,,,,0,0.17295000000000002,0,Stimuli/dory2.png,Stimuli/dory2.png,46.00353485206142,46.21811648004223,46.00353485206142,None,46.30337929807138,46.50179426104296,46.30337929807138,None,f,1,0.8242509089177474,46.48710280505475,None,None,1,46.48710280505475,None,50.503494506003335,None,50.503494506003335,None,,,,,,,,,,,,,,,,,,1,2,2020_Oct_30_0010,configural_featural,2020.2.4,None,
,,1,0,1,0,,,,,,,,,,,,,,,,,,,,,,,,,,,,,,,,,,,,,,,,0,0.17295000000000002,1,Stimuli/dory2.png,Stimuli/dory1.png,52.50344978598878,52.701759956078604,52.50344978598878,None,52.83238564396743,53.03710599406622,52.83238564396743,None,j,1,1.1555172259686515,53.00397215306293,None,None,1,53.00397215306293,None,56.9852095519891,None,56.9852095519891,None,,,,,,,,,,,,,,,,,,1,2,2020_Oct_30_0010,configural_featural,2020.2.4,None,
,,2,0,2,0,,,,,,,,,,,,,,,,,,,,,,,,,,,,,,,,,,,,,,,,0,0.17295000000000002,1,Stimuli/dory1.png,Stimuli/dory2.png,59.030960104078986,59.235092942020856,59.030960104078986,None,59.30360427999403,59.51845763705205,59.30360427999403,None,j,1,0.7401416300563142,59.48510845401324,None,None,1,59.48510845401324,None,63.485218603978865,None,63.485218603978865,None,,,,,,,,,,,,,,,,,,1,2,2020_Oct_30_0010,configural_featural,2020.2.4,None,
,,3,0,3,0,,,,,,,,,,,,,,,,,,,,,,,,,,,,,,,,,,,,,,,,0,0.17295000000000002,1,Stimuli/nemo2.png,Stimuli/nemo1.jpg,65.53204359707888,65.73531205102336,65.53204359707888,None,65.81015185604338,66.01855275104754,65.81015185604338,None,j,1,0.48325076198671013,65.98515195399523,None,None,1,65.98515195399523,None,69.98514545499347,None,69.98514545499347,None,,,,,,,,,,,,,,,,,,1,2,2020_Oct_30_0010,configural_featural,2020.2.4,None,
,,4,0,4,0,,,,,,,,,,,,,,,,,,,,,,,,,,,,,,,,,,,,,,,,1,-0.17295000000000002,1,Stimuli/nemo1.jpg,Stimuli/nemo2.png,72.00180965801701,72.20191766205244,72.00180965801701,None,72.33226481999736,72.53693907207344,72.33226481999736,None,j,1,1.012345396913588,72.50382151303347,None,space,1,72.50382151303347,None,76.48506535997149,None,76.48506535997149,None,1.30136342800688,,,,,,,,,,,,,,,,,1,2,2020_Oct_30_0010,configural_featural,2020.2.4,None,
,,5,0,5,0,,,,,,,,,,,,,,,,,,,,,,,,,,,,,,,,,,,,,,,,0,0.17295000000000002,0,Stimuli/dory1.png,Stimuli/dory1.png,78.53258459502831,78.73525791801512,78.53258459502831,None,78.8276399159804,79.03747516707517,78.8276399159804,None,f,1,0.7642744650365785,79.00401319202501,None,None,1,79.00401319202501,None,82.9852504900191,None,82.9852504900191,None,,,,,,,,,,,,,,,,,,1,2,2020_Oct_30_0010,configural_featural,2020.2.4,None,
,,6,0,6,0,,,,,,,,,,,,,,,,,,,,,,,,,,,,,,,,,,,,,,,,0,-0.17295000000000002,1,Stimuli/dory1.png,Stimuli/dory2.png,85.03225316805765,85.23530487099197,85.03225316805765,None,85.30378749698866,85.5187426180346,85.30378749698866,None,j,1,1.3629181559663266,85.48540373099968,None,None,1,85.48540373099968,None,89.48549539397936,None,89.48549539397936,None,,,,,,,,,,,,,,,,,,1,2,2020_Oct_30_0010,configural_featural,2020.2.4,None,
,,7,0,7,0,,,,,,,,,,,,,,,,,,,,,,,,,,,,,,,,,,,,,,,,0,0.17295000000000002,0,Stimuli/nemo1.jpg,Stimuli/nemo1.jpg,91.50132780405693,91.70205084106419,91.50132780405693,None,91.80213297705632,92.00458289904054,91.80213297705632,None,f,1,0.5810303189791739,91.98542993701994,None,None,1,91.98542993701994,None,95.98520391096827,None,95.98520391096827,None,,,,,,,,,,,,,,,,,,1,2,2020_Oct_30_0010,configural_featural,2020.2.4,None,
,,8,0,8,0,,,,,,,,,,,,,,,,,,,,,,,,,,,,,,,,,,,,,,,,1,-0.17295000000000002,0,Stimuli/nemo2.png,Stimuli/nemo2.png,98.03227297903504,98.2372918460751,98.03227297903504,None,98.33226361102425,98.53541665803641,98.33226361102425,None,f,1,1.0348189879441634,98.50217976199929,None,space,1,98.50217976199929,None,102.4855490460759,None,102.4855490460759,None,1.4610698060132563,,,,,,,,,,,,,,,,,1,2,2020_Oct_30_0010,configural_featural,2020.2.4,None,
,,9,0,9,0,,,,,,,,,,,,,,,,,,,,,,,,,,,,,,,,,,,,,,,,1,-0.17295000000000002,0,Stimuli/nemo2.png,Stimuli/nemo2.png,104.53111691807862,104.73555502400268,104.53111691807862,None,104.827250309987,105.03732792602386,104.827250309987,None,f,1,1.2910375039791688,105.00221794005483,None,space,1,105.00221794005483,None,108.98540889902506,None,108.98540889902506,None,1.5628460320876911,,,,,,,,,,,,,,,,,1,2,2020_Oct_30_0010,configural_featural,2020.2.4,None,
,,10,0,10,0,,,,,,,,,,,,,,,,,,,,,,,,,,,,,,,,,,,,,,,,0,-0.17295000000000002,0,Stimuli/dory2.png,Stimuli/dory2.png,111.00415269401856,111.21885028807446,111.00415269401856,None,111.30407926707994,111.51895415503532,111.30407926707994,None,f,1,0.6449199150083587,111.4856024190085,None,None,1,111.4856024190085,None,115.48562381707598,None,115.48562381707598,None,,,,,,,,,,,,,,,,,,1,2,2020_Oct_30_0010,configural_featural,2020.2.4,None,
,,11,0,11,0,,,,,,,,,,,,,,,,,,,,,,,,,,,,,,,,,,,,,,,,0,-0.17295000000000002,1,Stimuli/nemo1.jpg,Stimuli/nemo2.png,117.51060364500154,117.71886911801994,117.51060364500154,None,117.83249504305422,118.03542074898724,117.83249504305422,None,j,1,0.7519260890549049,118.00216529797763,None,None,1,118.00216529797763,None,121.98540093097836,None,121.98540093097836,None,,,,,,,,,,,,,,,,,,1,2,2020_Oct_30_0010,configural_featural,2020.2.4,None,
conf_face,Designs/instructions_face_1234.png,,,,,0,0,0,0,0,0,0,0,,,,,,,,,,,,,,,,,,,,,,,,,,,,,,,,,,,,,,,,,,,,,,,,,,,,,,,,,,,0,0.17295000000000002,0.0,Stimuli/eumu.png,Stimuli/eomu.png,None,None,None,f,0,1.3678952930495143,None,140.7691924800165,None,,,1,2,2020_Oct_30_0010,configural_featural,2020.2.4,None,
conf_face,Designs/instructions_face_1234.png,,,,,0,0,0,0,1,0,1,0,,,,,,,,,,,,,,,,,,,,,,,,,,,,,,,,,,,,,,,,,,,,,,,,,,,,,,,,,,,0,-0.17295000000000002,1.0,Stimuli/edmd.png,Stimuli/edmd.png,None,None,None,f,1,0.7063514379551634,None,142.88524384098127,None,,,1,2,2020_Oct_30_0010,configural_featural,2020.2.4,None,
conf_face,Designs/instructions_face_1234.png,,,,,0,0,0,0,2,0,2,0,,,,,,,,,,,,,,,,,,,,,,,,,,,,,,,,,,,,,,,,,,,,,,,,,,,,,,,,,,,0,-0.17295000000000002,0.0,Stimuli/edmd.png,Stimuli/eimd.png,None,None,None,f,0,0.5566622890764847,None,144.33827873808332,None,,,1,2,2020_Oct_30_0010,configural_featural,2020.2.4,None,
conf_face,Designs/instructions_face_1234.png,,,,,0,0,0,0,3,0,3,0,,,,,,,,,,,,,,,,,,,,,,,,,,,,,,,,,,,,,,,,,,,,,,,,,,,,,,,,,,,0,-0.17295000000000002,1.0,Stimuli/eimd.png,Stimuli/eimd.png,None,None,None,f,1,1.6198526819935068,None,145.61907549505122,None,,,1,2,2020_Oct_30_0010,configural_featural,2020.2.4,None,
conf_face,Designs/instructions_face_1234.png,,,,,0,0,0,0,4,0,4,0,,,,,,,,,,,,,,,,,,,,,,,,,,,,,,,,,,,,,,,,,,,,,,,,,,,,,,,,,,,0,-0.17295000000000002,0.0,Stimuli/eumu.png,Stimuli/edmd.png,None,None,None,j,1,0.7139091530116275,None,147.98591410298832,None,,,1,2,2020_Oct_30_0010,configural_featural,2020.2.4,None,
conf_face,Designs/instructions_face_1234.png,,,,,0,0,0,0,5,0,5,0,,,,,,,,,,,,,,,,,,,,,,,,,,,,,,,,,,,,,,,,,,,,,,,,,,,,,,,,,,,0,0.17295000000000002,1.0,Stimuli/eumu.png,Stimuli/eumu.png,None,None,None,j,0,1.218614129931666,None,149.41933349508327,None,,,1,2,2020_Oct_30_0010,configural_featural,2020.2.4,None,
conf_face,Designs/instructions_face_1234.png,,,,,0,0,0,0,6,0,6,0,,,,,,,,,,,,,,,,,,,,,,,,,,,,,,,,,,,,,,,,,,,,,,,,,,,,,,,,,,,0,0.17295000000000002,1.0,Stimuli/eimd.png,Stimuli/eimd.png,None,None,None,f,1,0.634730668971315,None,151.36920872004703,None,,,1,2,2020_Oct_30_0010,configural_featural,2020.2.4,None,
conf_face,Designs/instructions_face_1234.png,,,,,0,0,0,0,7,0,7,0,,,,,,,,,,,,,,,,,,,,,,,,,,,,,,,,,,,,,,,,,,,,,,,,,,,,,,,,,,,0,0.17295000000000002,0.0,Stimuli/eumu.png,Stimuli/eimd.png,None,None,None,f,0,0.5936993090435863,None,152.75266661704518,None,,,1,2,2020_Oct_30_0010,configural_featural,2020.2.4,None,
conf_face,Designs/instructions_face_1234.png,,,,,0,0,0,0,8,0,8,0,,,,,,,,,,,,,,,,,,,,,,,,,,,,,,,,,,,,,,,,,,,,,,,,,,,,,,,,,,,0,-0.17295000000000002,0.0,Stimuli/eumu.png,Stimuli/eomu.png,None,None,None,j,1,0.6724443670827895,None,154.06909040897153,None,,,1,2,2020_Oct_30_0010,configural_featural,2020.2.4,None,
conf_face,Designs/instructions_face_1234.png,,,,,0,0,0,0,9,0,9,0,,,,,,,,,,,,,,,,,,,,,,,,,,,,,,,,,,,,,,,,,,,,,,,,,,,,,,,,,,,0,0.17295000000000002,1.0,Stimuli/edmd.png,Stimuli/edmd.png,None,None,None,j,0,0.8468218089547008,None,155.4689747809898,None,,,1,2,2020_Oct_30_0010,configural_featural,2020.2.4,None,
conf_face,Designs/instructions_face_1234.png,,,,,0,0,0,0,10,0,10,0,,,,,,,,,,,,,,,,,,,,,,,,,,,,,,,,,,,,,,,,,,,,,,,,,,,,,,,,,,,1,-0.17295000000000002,0.0,Stimuli/eimd.png,Stimuli/eomu.png,None,None,None,f,0,1.3112962340237573,space,157.03574808198027,None,0.13391269196290523,,1,2,2020_Oct_30_0010,configural_featural,2020.2.4,None,
conf_face,Designs/instructions_face_1234.png,,,,,0,0,0,0,11,0,11,0,,,,,,,,,,,,,,,,,,,,,,,,,,,,,,,,,,,,,,,,,,,,,,,,,,,,,,,,,,,0,-0.17295000000000002,1.0,Stimuli/eomu.png,Stimuli/eomu.png,None,None,None,f,1,0.4880278700729832,None,159.07163999206387,None,,,1,2,2020_Oct_30_0010,configural_featural,2020.2.4,None,
conf_face,Designs/instructions_face_1234.png,,,,,0,0,0,0,12,0,12,0,,,,,,,,,,,,,,,,,,,,,,,,,,,,,,,,,,,,,,,,,,,,,,,,,,,,,,,,,,,0,0.17295000000000002,0.0,Stimuli/edmd.png,Stimuli/eimd.png,None,None,None,j,1,1.5256081640254706,None,160.28596492507495,None,,,1,2,2020_Oct_30_0010,configural_featural,2020.2.4,None,
conf_face,Designs/instructions_face_1234.png,,,,,0,0,0,0,13,0,13,0,,,,,,,,,,,,,,,,,,,,,,,,,,,,,,,,,,,,,,,,,,,,,,,,,,,,,,,,,,,0,-0.17295000000000002,0.0,Stimuli/eimd.png,Stimuli/eumu.png,None,None,None,f,0,0.9136524290079251,None,162.5360534460051,None,,,1,2,2020_Oct_30_0010,configural_featural,2020.2.4,None,
conf_face,Designs/instructions_face_1234.png,,,,,0,0,0,0,14,0,14,0,,,,,,,,,,,,,,,,,,,,,,,,,,,,,,,,,,,,,,,,,,,,,,,,,,,,,,,,,,,0,-0.17295000000000002,1.0,Stimuli/eumu.png,Stimuli/eumu.png,None,None,None,j,0,0.3835037980461493,None,164.1694440849824,None,,,1,2,2020_Oct_30_0010,configural_featural,2020.2.4,None,
conf_face,Designs/instructions_face_1234.png,,,,,0,0,0,0,15,0,15,0,,,,,,,,,,,,,,,,,,,,,,,,,,,,,,,,,,,,,,,,,,,,,,,,,,,,,,,,,,,1,0.17295000000000002,0.0,Stimuli/eomu.png,Stimuli/eumu.png,None,None,None,j,1,0.8219262060010806,None,165.2720024670707,None,,,1,2,2020_Oct_30_0010,configural_featural,2020.2.4,None,
conf_face,Designs/instructions_face_1234.png,,,,,0,0,0,0,16,0,16,0,,,,,,,,,,,,,,,,,,,,,,,,,,,,,,,,,,,,,,,,,,,,,,,,,,,,,,,,,,,0,0.17295000000000002,1.0,Stimuli/eomu.png,Stimuli/eomu.png,None,None,None,f,1,0.6462859410094097,None,166.81937052006833,None,,,1,2,2020_Oct_30_0010,configural_featural,2020.2.4,None,
conf_face,Designs/instructions_face_1234.png,,,,,0,0,0,0,17,0,17,0,,,,,,,,,,,,,,,,,,,,,,,,,,,,,,,,,,,,,,,,,,,,,,,,,,,,,,,,,,,0,0.17295000000000002,1.0,Stimuli/eimd.png,Stimuli/eimd.png,None,None,None,f,1,0.4716152569744736,None,168.18587752408348,None,,,1,2,2020_Oct_30_0010,configural_featural,2020.2.4,None,
conf_face,Designs/instructions_face_1234.png,,,,,0,0,0,0,18,0,18,0,,,,,,,,,,,,,,,,,,,,,,,,,,,,,,,,,,,,,,,,,,,,,,,,,,,,,,,,,,,0,0.17295000000000002,0.0,Stimuli/eomu.png,Stimuli/eimd.png,None,None,None,j,1,0.5587849679868668,None,169.38587272306904,None,,,1,2,2020_Oct_30_0010,configural_featural,2020.2.4,None,
,,,,,,,,,,,,,,,,,,,,,,,,,,,,,,,,,,,,,,,,,,,,,,,,,,,,,,,,,,,,,,,,,,,,,,,,0,-0.17295000000000002,0.0,Stimuli/eimd.png,Stimuli/edmd.png,None,None,None,,,,,,,,,,,,,,,
