repPracLoop.thisRepN,repPracLoop.thisTrialN,repPracLoop.thisN,repPracLoop.thisIndex,pTrials.thisRepN,pTrials.thisTrialN,pTrials.thisN,pTrials.thisIndex,pTrials_slow.thisRepN,pTrials_slow.thisTrialN,pTrials_slow.thisN,pTrials_slow.thisIndex,pTrials_fast.thisRepN,pTrials_fast.thisTrialN,pTrials_fast.thisN,pTrials_fast.thisIndex,blocks.thisRepN,blocks.thisTrialN,blocks.thisN,blocks.thisIndex,Block_type,instruction_text,X Scale,Y Scale,key_resp_10.keys,key_resp_10.rt,prePrac1Resp.keys,prePrac1Resp.corr,prePrac1Resp.rt,prePrac2_fixResp.keys,prePrac2_fixResp.corr,prePrac2_fixResp.rt,prePrac2_imgResp.keys,prePrac2_imgResp.corr,prePrac2_imgResp.rt,pfix_switches,Pside,ptrial_type1S0D,ptarget,pprobe,prac_resp.keys,prac_resp.corr,prac_fix_resp.keys,prac_fix_resp.corr,prac_fix_resp_fast.keys,prac_fix_resp_fast.corr,prac_resp2.keys,prac_resp2.corr,prac_fix_resp_fast.rt,prac_resp.rt,prac_fix_resp.rt,prac_resp2.rt,participant,design,position,date,expName,psychopyVersion,frameRate,winSize,
,,,,,,,,,,,,,,,,,,,,,,0.05,0.05,space,0.36606963723897934,,,,,,,,,,,,,,,,,,,,,,,,,,,,1,2,2020_Dec_11_1855,configural_featural,2020.2.4,None,[3584 2240],
,,,,,,,,,,,,,,,,,,,,,,,,,,j,1,15.95463694119826,,,,,,,,,,,,,,,,,,,,,,,,,1,2,2020_Dec_11_1855,configural_featural,2020.2.4,None,[3584 2240],
,,,,,,,,,,,,,,,,,,,,,,,,,,,,,space,1,0.8616059371270239,,,,,,,,,,,,,,,,,,,,,,1,2,2020_Dec_11_1855,configural_featural,2020.2.4,None,[3584 2240],
,,,,,,,,,,,,,,,,,,,,,,,,,,,,,,,,f,1,0.47873152466490865,,,,,,,,,,,,,,,,,,,1,2,2020_Dec_11_1855,configural_featural,2020.2.4,None,[3584 2240],
0,0,0,0,0,0,0,0,0,0,0,0,,,,,,,,,,,,,,,,,,,,,,,,0,0.17380935298900002,0,Stimuli/H7sim0.png,Stimuli/H7sim0.png,None,0,None,1,,,,,,,,,,1,2,2020_Dec_11_1855,configural_featural,2020.2.4,None,[3584 2240],
0,0,0,0,0,0,0,0,1,0,1,0,,,,,,,,,,,,,,,,,,,,,,,,0,-0.17380935298900002,1,Stimuli/H-8sim0.png,Stimuli/H8sim0.png,None,0,None,1,,,,,,,,,,1,2,2020_Dec_11_1855,configural_featural,2020.2.4,None,[3584 2240],
0,0,0,0,0,0,0,0,2,0,2,0,,,,,,,,,,,,,,,,,,,,,,,,1,0.17380935298900002,0,Stimuli/H-8sim2.png,Stimuli/H-8sim2.png,None,0,None,0,,,,,,,,,,1,2,2020_Dec_11_1855,configural_featural,2020.2.4,None,[3584 2240],
0,0,0,0,0,0,0,0,3,0,3,0,,,,,,,,,,,,,,,,,,,,,,,,0,-0.17380935298900002,1,Stimuli/H-8sim3.png,Stimuli/H-8sim1.png,None,0,None,1,,,,,,,,,,1,2,2020_Dec_11_1855,configural_featural,2020.2.4,None,[3584 2240],
0,0,0,0,0,0,0,0,,,,,0,0,0,0,,,,,,,,,,,,,,,,,,,,0,0.17380935298900002,0,Stimuli/H8sim0.png,Stimuli/H8sim0.png,,,,,None,1,None,0,,,,,,1,2,2020_Dec_11_1855,configural_featural,2020.2.4,None,[3584 2240],
0,0,0,0,0,0,0,0,,,,,1,0,1,0,,,,,,,,,,,,,,,,,,,,0,0.17380935298900002,1,Stimuli/H-8sim3.png,Stimuli/H-8sim2.png,,,,,None,1,None,0,,,,,,1,2,2020_Dec_11_1855,configural_featural,2020.2.4,None,[3584 2240],
0,0,0,0,0,0,0,0,,,,,2,0,2,0,,,,,,,,,,,,,,,,,,,,1,-0.17380935298900002,0,Stimuli/H-8sim3.png,Stimuli/H-8sim3.png,,,,,None,0,None,0,,,,,,1,2,2020_Dec_11_1855,configural_featural,2020.2.4,None,[3584 2240],
0,0,0,0,0,0,0,0,,,,,3,0,3,0,,,,,,,,,,,,,,,,,,,,0,-0.17380935298900002,1,Stimuli/H-8sim3.png,Stimuli/H5sim0.png,,,,,space,0,None,0,2.089997217990458,,,,,1,2,2020_Dec_11_1855,configural_featural,2020.2.4,None,[3584 2240],
0,0,0,0,1,0,1,0,0,0,0,0,,,,,,,,,,,,,,,,,,,,,,,,0,-0.17380935298900002,0,Stimuli/f24.png,Stimuli/f24.png,None,0,None,1,,,,,,,,,,1,2,2020_Dec_11_1855,configural_featural,2020.2.4,None,[3584 2240],
0,0,0,0,1,0,1,0,1,0,1,0,,,,,,,,,,,,,,,,,,,,,,,,0,0.17380935298900002,1,Stimuli/edmd.png,Stimuli/f15.png,j,1,None,1,,,,,,1.950719497166574,,,,1,2,2020_Dec_11_1855,configural_featural,2020.2.4,None,[3584 2240],
0,0,0,0,1,0,1,0,2,0,2,0,,,,,,,,,,,,,,,,,,,,,,,,1,-0.17380935298900002,0,Stimuli/f131.png,Stimuli/f131.png,None,0,None,0,,,,,,,,,,1,2,2020_Dec_11_1855,configural_featural,2020.2.4,None,[3584 2240],
0,0,0,0,1,0,1,0,3,0,3,0,,,,,,,,,,,,,,,,,,,,,,,,0,0.17380935298900002,1,Stimuli/f15.png,Stimuli/f142.png,None,0,space,0,,,,,,,1.0710734012536705,,,1,2,2020_Dec_11_1855,configural_featural,2020.2.4,None,[3584 2240],
0,0,0,0,1,0,1,0,,,,,0,0,0,0,,,,,,,,,,,,,,,,,,,,0,-0.17380935298900002,0,Stimuli/edmd.png,Stimuli/edmd.png,,,,,None,1,f,1,,,,1.1728716911748052,,1,2,2020_Dec_11_1855,configural_featural,2020.2.4,None,[3584 2240],
0,0,0,0,1,0,1,0,,,,,1,0,1,0,,,,,,,,,,,,,,,,,,,,1,-0.17380935298900002,1,Stimuli/eumu.png,Stimuli/eomu.png,,,,,space,1,j,1,1.029783186968416,,,0.7769045592285693,,1,2,2020_Dec_11_1855,configural_featural,2020.2.4,None,[3584 2240],
0,0,0,0,1,0,1,0,,,,,2,0,2,0,,,,,,,,,,,,,,,,,,,,0,0.17380935298900002,0,Stimuli/f15.png,Stimuli/f15.png,,,,,None,1,j,0,,,,1.1693598381243646,,1,2,2020_Dec_11_1855,configural_featural,2020.2.4,None,[3584 2240],
0,0,0,0,1,0,1,0,,,,,3,0,3,0,,,,,,,,,,,,,,,,,,,,0,0.17380935298900002,1,Stimuli/f24.png,Stimuli/eumu.png,,,,,None,1,j,1,,,,1.1158989276736975,,1,2,2020_Dec_11_1855,configural_featural,2020.2.4,None,[3584 2240],
