Block_type,instruction_text,pTrials.thisRepN,pTrials.thisTrialN,pTrials.thisN,pTrials.thisIndex,blocks.thisRepN,blocks.thisTrialN,blocks.thisN,blocks.thisIndex,trials.thisRepN,trials.thisTrialN,trials.thisN,trials.thisIndex,X Scale,Y Scale,image_6.started,image_6.stopped,text_8.started,text_8.stopped,image_7.started,image_7.stopped,prac_instr2.started,prac_instr2.stopped,prePrac1Resp.keys,prePrac1Resp.corr,prePrac1Resp.rt,prePrac1Resp.started,prePrac1Resp.stopped,image_8.started,image_8.stopped,text_9.started,text_9.stopped,image_9.started,image_9.stopped,prac_instr4.started,prac_instr4.stopped,key_resp_10.keys,key_resp_10.corr,key_resp_10.rt,key_resp_13.keys,key_resp_13.corr,key_resp_13.rt,key_resp_13.started,key_resp_13.stopped,pfix_switches,Pside,ptrial_type1S0D,ptarget,pprobe,image.started,image.stopped,text_6.started,text_6.stopped,image_2.started,image_2.stopped,text_7.started,text_7.stopped,prac_resp.keys,prac_resp.corr,prac_resp.rt,prac_resp.started,prac_resp.stopped,prac_fix_resp.keys,prac_fix_resp.corr,prac_fix_resp.started,prac_fix_resp.stopped,image_3.started,image_3.stopped,feedback_msg.started,feedback_msg.stopped,fix_switches,side,trial_type1S0D,target,probe,key_resp_3.keys,key_resp_4.keys,key_resp_5.keys,key_resp.keys,key_resp.corr,key_resp.rt,key_resp_6.keys,key_resp_6.started,key_resp_6.stopped,key_resp_3.rt,key_resp_5.rt,key_resp_4.rt,participant,design,position,date,expName,psychopyVersion,frameRate,winSize,
,,,,,,,,,,,,,,0.0474,0.046,28.898158451076597,29.108137704082765,28.898158451076597,None,29.35866722499486,None,30.022988062002696,None,j,1,1.0257418230175972,30.022988062002696,None,,,,,,,,,,,,,,,,,,,,,,,,,,,,,,,,,,,,,,,,,,,,,,,,,,,,,,,,,,,,,3,2,2020_Nov_05_2129,configural_featural,2020.2.4,None,[3584 2240],
,,,,,,,,,,,,,,,,,,,,,,,,,,,,,40.23156598000787,40.441739049041644,40.23156598000787,None,40.68984619609546,None,40.87315895303618,None,space,1,0.9569120840169489,,,,,,,,,,,,,,,,,,,,,,,,,,,,,,,,,,,,,,,,,,,,,,,,,,3,2,2020_Nov_05_2129,configural_featural,2020.2.4,None,[3584 2240],
,,,,,,,,,,,,,,,,,,,,,,,,,,,,,,,,,,,,,,,,f,1,0.7381249329773709,40.87315895303618,None,,,,,,,,,,,,,,,,,,,,,,,,,,,,,,,,,,,,,,,,,,,,,3,2,2020_Nov_05_2129,configural_featural,2020.2.4,None,[3584 2240],
,,0,0,0,0,,,,,,,,,,,,,,,,,,,,,,,,,,,,,,,,,,,,,,,,0,0.12304092,1,Stimuli/dory2.png,Stimuli/dory1.png,54.35667240805924,54.55839037708938,54.35667240805924,None,54.68722062406596,54.89119800599292,54.68722062406596,None,j,1,0.9643438089406118,54.856695874012075,None,None,1,54.856695874012075,None,58.87499889708124,None,58.87499889708124,None,,,,,,,,,,,,,,,,,,,3,2,2020_Nov_05_2129,configural_featural,2020.2.4,None,[3584 2240],
,,1,0,1,0,,,,,,,,,,,,,,,,,,,,,,,,,,,,,,,,,,,,,,,,0,0.12304092,1,Stimuli/nemo1.jpg,Stimuli/nemo2.png,60.89824433205649,61.108336782082915,60.89824433205649,None,61.20286615600344,61.40867462102324,61.20286615600344,None,None,0,,61.375382469035685,None,None,1,61.375382469035685,None,65.35666932503227,None,65.35666932503227,None,,,,,,,,,,,,,,,,,,,3,2,2020_Nov_05_2129,configural_featural,2020.2.4,None,[3584 2240],
,,2,0,2,0,,,,,,,,,,,,,,,,,,,,,,,,,,,,,,,,,,,,,,,,0,0.12304092,0,Stimuli/dory1.png,Stimuli/dory1.png,67.41508100507781,67.62338754709344,67.41508100507781,None,67.70237977500074,67.90864083508495,67.70237977500074,None,None,0,,67.87352437200025,None,None,1,67.87352437200025,None,71.85661845607683,None,71.85661845607683,None,,,,,,,,,,,,,,,,,,,3,2,2020_Nov_05_2129,configural_featural,2020.2.4,None,[3584 2240],
,,3,0,3,0,,,,,,,,,,,,,,,,,,,,,,,,,,,,,,,,,,,,,,,,0,0.12304092,1,Stimuli/dory1.png,Stimuli/dory2.png,73.88976360601373,74.09004614804871,73.88976360601373,None,74.17513744009193,74.3924904470332,74.17513744009193,None,None,0,,74.3568052740302,None,None,1,74.3568052740302,None,78.35681111400481,None,78.35681111400481,None,,,,,,,,,,,,,,,,,,,3,2,2020_Nov_05_2129,configural_featural,2020.2.4,None,[3584 2240],
,,4,0,4,0,,,,,,,,,,,,,,,,,,,,,,,,,,,,,,,,,,,,,,,,1,-0.12304092,1,Stimuli/nemo1.jpg,Stimuli/nemo2.png,80.37521669804119,80.59014468907844,80.37521669804119,None,80.70373330509756,80.90877780306619,80.70373330509756,None,None,0,,80.87349994305987,None,None,0,80.87349994305987,None,84.8749315100722,None,84.8749315100722,None,,,,,,,,,,,,,,,,,,,3,2,2020_Nov_05_2129,configural_featural,2020.2.4,None,[3584 2240],
,,5,0,5,0,,,,,,,,,,,,,,,,,,,,,,,,,,,,,,,,,,,,,,,,0,0.12304092,0,Stimuli/nemo2.png,Stimuli/nemo2.png,86.88750221510418,87.09037904604338,86.88750221510418,None,87.20125973201357,87.40692074701656,87.20125973201357,None,None,0,,87.3735682660481,None,None,1,87.3735682660481,None,91.35863828507718,None,91.35863828507718,None,,,,,,,,,,,,,,,,,,,3,2,2020_Nov_05_2129,configural_featural,2020.2.4,None,[3584 2240],
,,6,0,6,0,,,,,,,,,,,,,,,,,,,,,,,,,,,,,,,,,,,,,,,,1,-0.12304092,1,Stimuli/nemo2.png,Stimuli/nemo1.jpg,93.38660181302112,93.59028687700629,93.38660181302112,None,93.67339518701192,93.87377635901794,93.67339518701192,None,None,0,,93.85886925004888,None,None,0,93.85886925004888,None,97.85871881607454,None,97.85871881607454,None,,,,,,,,,,,,,,,,,,,3,2,2020_Nov_05_2129,configural_featural,2020.2.4,None,[3584 2240],
,,7,0,7,0,,,,,,,,,,,,,,,,,,,,,,,,,,,,,,,,,,,,,,,,0,0.12304092,0,Stimuli/dory2.png,Stimuli/dory2.png,99.8735247370787,100.07364666403737,99.8735247370787,None,100.15871860203333,100.37379063607659,100.15871860203333,None,None,0,,100.34031509701163,104.34208683006,None,1,100.34031509701163,104.34208683006,104.37551037908997,None,104.37551037908997,None,,,,,,,,,,,,,,,,,,,3,2,2020_Nov_05_2129,configural_featural,2020.2.4,None,[3584 2240],
,,8,0,8,0,,,,,,,,,,,,,,,,,,,,,,,,,,,,,,,,,,,,,,,,0,-0.12304092,0,Stimuli/nemo2.png,Stimuli/nemo2.png,106.40405236801598,106.60890707804356,106.40405236801598,None,106.70271085505374,106.90710650000256,106.70271085505374,None,None,0,,106.87366162799299,None,None,1,106.87366162799299,None,110.84030253207311,None,110.84030253207311,None,,,,,,,,,,,,,,,,,,,3,2,2020_Nov_05_2129,configural_featural,2020.2.4,None,[3584 2240],
,,9,0,9,0,,,,,,,,,,,,,,,,,,,,,,,,,,,,,,,,,,,,,,,,1,-0.12304092,1,Stimuli/dory1.png,Stimuli/dory2.png,112.88745447807014,113.0905216060346,112.88745447807014,None,113.17564792803023,113.37370889005251,113.17564792803023,None,None,0,,113.35911483305972,None,None,0,113.35911483305972,None,117.33987540006638,None,117.33987540006638,None,,,,,,,,,,,,,,,,,,,3,2,2020_Nov_05_2129,configural_featural,2020.2.4,None,[3584 2240],
,,10,0,10,0,,,,,,,,,,,,,,,,,,,,,,,,,,,,,,,,,,,,,,,,0,-0.12304092,0,Stimuli/dory2.png,Stimuli/dory2.png,119.358839722001,119.5738739540102,119.358839722001,None,119.65893439203501,119.87383261101786,119.65893439203501,None,None,0,,119.84050394303631,123.84223480708897,None,1,119.84050394303631,123.84223480708897,123.87547955207992,None,123.87547955207992,None,,,,,,,,,,,,,,,,,,,3,2,2020_Nov_05_2129,configural_featural,2020.2.4,None,[3584 2240],
,,11,0,11,0,,,,,,,,,,,,,,,,,,,,,,,,,,,,,,,,,,,,,,,,0,-0.12304092,0,Stimuli/nemo1.jpg,Stimuli/nemo1.jpg,125.8823317179922,126.09049289708491,125.8823317179922,None,126.17397252609953,126.37606369901914,126.17397252609953,None,None,0,,126.35726816602983,None,None,1,126.35726816602983,None,130.34044109703973,None,130.34044109703973,None,,,,,,,,,,,,,,,,,,,3,2,2020_Nov_05_2129,configural_featural,2020.2.4,None,[3584 2240],
conf_haus,Designs/instructions_haus_1234.png,,,,,0,0,0,0,0,0,0,0,,,,,,,,,,,,,,,,,,,,,,,,,,,,,,,,,,,,,,,,,,,,,,,,,,,,,,,,,,0,0.16396608,1.0,Stimuli/H-8sim1.png,Stimuli/H-8sim1.png,None,None,None,j,0,0.8807675749994814,None,141.973993505002,None,,,,,3,2,2020_Nov_05_2129,configural_featural,2020.2.4,None,[3584 2240],
conf_haus,Designs/instructions_haus_1234.png,,,,,0,0,0,0,1,0,1,0,,,,,,,,,,,,,,,,,,,,,,,,,,,,,,,,,,,,,,,,,,,,,,,,,,,,,,,,,,0,-0.16396608,0.0,Stimuli/H-8sim0.png,Stimuli/H-8sim2.png,None,None,None,j,1,0.35587132105138153,None,143.57383495708928,None,,,,,3,2,2020_Nov_05_2129,configural_featural,2020.2.4,None,[3584 2240],
conf_haus,Designs/instructions_haus_1234.png,,,,,0,0,0,0,2,0,2,0,,,,,,,,,,,,,,,,,,,,,,,,,,,,,,,,,,,,,,,,,,,,,,,,,,,,,,,,,,0,-0.16396608,0.0,Stimuli/H-8sim1.png,Stimuli/H-8sim2.png,None,None,None,j,1,0.38664319599047303,None,144.65730010007974,None,,,,,3,2,2020_Nov_05_2129,configural_featural,2020.2.4,None,[3584 2240],
conf_haus,Designs/instructions_haus_1234.png,,,,,0,0,0,0,3,0,3,0,,,,,,,,,,,,,,,,,,,,,,,,,,,,,,,,,,,,,,,,,,,,,,,,,,,,,,,,,,0,-0.16396608,1.0,Stimuli/H-8sim2.png,Stimuli/H-8sim2.png,None,None,None,j,0,0.22298263804987073,None,145.7740807060618,None,,,,,3,2,2020_Nov_05_2129,configural_featural,2020.2.4,None,[3584 2240],
conf_haus,Designs/instructions_haus_1234.png,,,,,0,0,0,0,4,0,4,0,,,,,,,,,,,,,,,,,,,,,,,,,,,,,,,,,,,,,,,,,,,,,,,,,,,,,,,,,,0,-0.16396608,1.0,Stimuli/H-8sim0.png,Stimuli/H-8sim0.png,None,None,None,j,0,0.3596660929033533,None,146.72404345101677,None,,,,,3,2,2020_Nov_05_2129,configural_featural,2020.2.4,None,[3584 2240],
conf_haus,Designs/instructions_haus_1234.png,,,,,0,0,0,0,5,0,5,0,,,,,,,,,,,,,,,,,,,,,,,,,,,,,,,,,,,,,,,,,,,,,,,,,,,,,,,,,,0,0.16396608,0.0,Stimuli/H-8sim1.png,Stimuli/H-8sim0.png,None,None,None,j,1,0.34219171095173806,None,147.807398994104,None,,,,,3,2,2020_Nov_05_2129,configural_featural,2020.2.4,None,[3584 2240],
conf_haus,Designs/instructions_haus_1234.png,,,,,0,0,0,0,6,0,6,0,,,,,,,,,,,,,,,,,,,,,,,,,,,,,,,,,,,,,,,,,,,,,,,,,,,,,,,,,,0,0.16396608,1.0,Stimuli/H-8sim2.png,Stimuli/H-8sim2.png,None,None,None,j,0,0.26387377199716866,None,148.8740257160971,None,,,,,3,2,2020_Nov_05_2129,configural_featural,2020.2.4,None,[3584 2240],
conf_haus,Designs/instructions_haus_1234.png,,,,,0,0,0,0,7,0,7,0,,,,,,,,,,,,,,,,,,,,,,,,,,,,,,,,,,,,,,,,,,,,,,,,,,,,,,,,,,0,-0.16396608,1.0,Stimuli/H-8sim1.png,Stimuli/H-8sim1.png,None,None,None,j,0,0.2791839779820293,None,149.85740796802565,None,,,,,3,2,2020_Nov_05_2129,configural_featural,2020.2.4,None,[3584 2240],
conf_haus,Designs/instructions_haus_1234.png,,,,,0,0,0,0,8,0,8,0,,,,,,,,,,,,,,,,,,,,,,,,,,,,,,,,,,,,,,,,,,,,,,,,,,,,,,,,,,1,0.16396608,0.0,Stimuli/H-8sim3.png,Stimuli/H-8sim2.png,None,None,None,j,1,0.2579026089515537,None,150.87416079710238,None,,,,,3,2,2020_Nov_05_2129,configural_featural,2020.2.4,None,[3584 2240],
conf_haus,Designs/instructions_haus_1234.png,,,,,0,0,0,0,9,0,9,0,,,,,,,,,,,,,,,,,,,,,,,,,,,,,,,,,,,,,,,,,,,,,,,,,,,,,,,,,,0,-0.16396608,0.0,Stimuli/H-8sim1.png,Stimuli/H-8sim0.png,None,None,None,j,1,0.2812148869270459,None,151.8597149210982,None,,,,,3,2,2020_Nov_05_2129,configural_featural,2020.2.4,None,[3584 2240],
conf_haus,Designs/instructions_haus_1234.png,,,,,0,0,0,0,10,0,10,0,,,,,,,,,,,,,,,,,,,,,,,,,,,,,,,,,,,,,,,,,,,,,,,,,,,,,,,,,,0,0.16396608,1.0,Stimuli/H-8sim0.png,Stimuli/H-8sim0.png,None,None,None,j,0,0.2501484890235588,None,152.8739526401041,None,,,,,3,2,2020_Nov_05_2129,configural_featural,2020.2.4,None,[3584 2240],
conf_haus,Designs/instructions_haus_1234.png,,,,,0,0,0,0,11,0,11,0,,,,,,,,,,,,,,,,,,,,,,,,,,,,,,,,,,,,,,,,,,,,,,,,,,,,,,,,,,1,-0.16396608,0.0,Stimuli/H-8sim2.png,Stimuli/H-8sim3.png,None,None,None,j,1,0.17865983804222196,None,153.85727701103315,None,,,,,3,2,2020_Nov_05_2129,configural_featural,2020.2.4,None,[3584 2240],
conf_haus,Designs/instructions_haus_1234.png,,,,,0,0,0,0,12,0,12,0,,,,,,,,,,,,,,,,,,,,,,,,,,,,,,,,,,,,,,,,,,,,,,,,,,,,,,,,,,0,-0.16396608,1.0,Stimuli/H-8sim3.png,Stimuli/H-8sim3.png,None,None,None,j,0,0.15464176796376705,None,154.75713954202365,None,,,,,3,2,2020_Nov_05_2129,configural_featural,2020.2.4,None,[3584 2240],
conf_haus,Designs/instructions_haus_1234.png,,,,,0,0,0,0,13,0,13,0,,,,,,,,,,,,,,,,,,,,,,,,,,,,,,,,,,,,,,,,,,,,,,,,,,,,,,,,,,0,-0.16396608,0.0,Stimuli/H-8sim0.png,Stimuli/H-8sim1.png,None,None,None,j,1,0.084022430004552,None,155.64058693603147,None,,,,,3,2,2020_Nov_05_2129,configural_featural,2020.2.4,None,[3584 2240],
conf_haus,Designs/instructions_haus_1234.png,,,,,0,0,0,0,14,0,14,0,,,,,,,,,,,,,,,,,,,,,,,,,,,,,,,,,,,,,,,,,,,,,,,,,,,,,,,,,,0,0.16396608,0.0,Stimuli/H-8sim3.png,Stimuli/H-8sim1.png,None,None,None,j,1,0.06829465390183032,None,156.4406963000074,None,,,,,3,2,2020_Nov_05_2129,configural_featural,2020.2.4,None,[3584 2240],
conf_haus,Designs/instructions_haus_1234.png,,,,,0,0,0,0,15,0,15,0,,,,,,,,,,,,,,,,,,,,,,,,,,,,,,,,,,,,,,,,,,,,,,,,,,,,,,,,,,0,0.16396608,1.0,Stimuli/H-8sim3.png,Stimuli/H-8sim3.png,None,None,None,j,0,0.10770007001701742,None,157.25742641102988,None,,,,,3,2,2020_Nov_05_2129,configural_featural,2020.2.4,None,[3584 2240],
conf_haus,Designs/instructions_haus_1234.png,,,,,0,0,0,0,16,0,16,0,,,,,,,,,,,,,,,,,,,,,,,,,,,,,,,,,,,,,,,,,,,,,,,,,,,,,,,,,,0,0.16396608,1.0,Stimuli/H-8sim3.png,Stimuli/H-8sim3.png,None,None,None,j,0,0.5841928221052513,None,158.10738364607096,None,,,,,3,2,2020_Nov_05_2129,configural_featural,2020.2.4,None,[3584 2240],
conf_haus,Designs/instructions_haus_1234.png,,,,,0,0,0,0,17,0,17,0,,,,,,,,,,,,,,,,,,,,,,,,,,,,,,,,,,,,,,,,,,,,,,,,,,,,,,,,,,0,0.16396608,0.0,Stimuli/H-8sim2.png,Stimuli/H-8sim3.png,None,None,None,j,1,0.301028139074333,None,159.42410691804253,None,,,,,3,2,2020_Nov_05_2129,configural_featural,2020.2.4,None,[3584 2240],
conf_haus,Designs/instructions_haus_1234.png,,,,,0,0,0,0,18,0,18,0,,,,,,,,,,,,,,,,,,,,,,,,,,,,,,,,,,,,,,,,,,,,,,,,,,,,,,,,,,0,0.16396608,1.0,Stimuli/H-8sim1.png,Stimuli/H-8sim1.png,None,None,None,j,0,0.358678721007891,None,160.4600166460732,None,,,,,3,2,2020_Nov_05_2129,configural_featural,2020.2.4,None,[3584 2240],
conf_haus,Designs/instructions_haus_1234.png,,,,,0,0,0,0,19,0,19,0,,,,,,,,,,,,,,,,,,,,,,,,,,,,,,,,,,,,,,,,,,,,,,,,,,,,,,,,,,0,-0.16396608,0.0,Stimuli/H-8sim1.png,Stimuli/H-8sim3.png,None,None,None,j,1,0.8940879020374268,None,161.54077175806742,None,,,,,3,2,2020_Nov_05_2129,configural_featural,2020.2.4,None,[3584 2240],
conf_haus,Designs/instructions_haus_1234.png,,,,,0,0,0,0,20,0,20,0,,,,,,,,,,,,,,,,,,,,,,,,,,,,,,,,,,,,,,,,,,,,,,,,,,,,,,,,,,0,0.16396608,0.0,Stimuli/H-8sim0.png,Stimuli/H-8sim3.png,None,None,None,j,1,0.41915785905439407,None,163.15755359700415,None,,,,,3,2,2020_Nov_05_2129,configural_featural,2020.2.4,None,[3584 2240],
conf_haus,Designs/instructions_haus_1234.png,,,,,0,0,0,0,21,0,21,0,,,,,,,,,,,,,,,,,,,,,,,,,,,,,,,,,,,,,,,,,,,,,,,,,,,,,,,,,,0,-0.16396608,1.0,Stimuli/H-8sim3.png,Stimuli/H-8sim3.png,None,None,None,j,0,0.28822236496489495,None,164.3099961610278,None,,,,,3,2,2020_Nov_05_2129,configural_featural,2020.2.4,None,[3584 2240],
conf_haus,Designs/instructions_haus_1234.png,,,,,0,0,0,0,22,0,22,0,,,,,,,,,,,,,,,,,,,,,,,,,,,,,,,,,,,,,,,,,,,,,,,,,,,,,,,,,,0,-0.16396608,1.0,Stimuli/H-8sim2.png,Stimuli/H-8sim2.png,None,None,None,j,0,0.2699252450838685,None,165.32417926902417,None,,,,,3,2,2020_Nov_05_2129,configural_featural,2020.2.4,None,[3584 2240],
conf_haus,Designs/instructions_haus_1234.png,,,,,0,0,0,0,23,0,23,0,,,,,,,,,,,,,,,,,,,,,,,,,,,,,,,,,,,,,,,,,,,,,,,,,,,,,,,,,,0,0.16396608,0.0,Stimuli/H-8sim0.png,Stimuli/H-8sim2.png,None,None,None,j,1,0.035404840018600225,None,166.3242435620632,None,,,,,3,2,2020_Nov_05_2129,configural_featural,2020.2.4,None,[3584 2240],
conf_haus,Designs/instructions_haus_1234.png,,,,,0,0,0,0,24,0,24,0,,,,,,,,,,,,,,,,,,,,,,,,,,,,,,,,,,,,,,,,,,,,,,,,,,,,,,,,,,0,0.16396608,1.0,Stimuli/H-8sim0.png,Stimuli/H-8sim0.png,None,None,None,j,0,0.1996328360401094,None,167.10761334199924,None,,,,,3,2,2020_Nov_05_2129,configural_featural,2020.2.4,None,[3584 2240],
conf_haus,Designs/instructions_haus_1234.png,,,,,0,0,0,0,25,0,25,0,,,,,,,,,,,,,,,,,,,,,,,,,,,,,,,,,,,,,,,,,,,,,,,,,,,,,,,,,,0,-0.16396608,0.0,Stimuli/H-8sim2.png,Stimuli/H-8sim0.png,None,None,None,j,1,0.47147010697517544,None,168.02418841805775,None,,,,,3,2,2020_Nov_05_2129,configural_featural,2020.2.4,None,[3584 2240],
conf_haus,Designs/instructions_haus_1234.png,,,,,0,0,0,0,26,0,26,0,,,,,,,,,,,,,,,,,,,,,,,,,,,,,,,,,,,,,,,,,,,,,,,,,,,,,,,,,,0,-0.16396608,1.0,Stimuli/H-8sim1.png,Stimuli/H-8sim1.png,None,None,None,j,0,0.5871471980353817,None,169.22421140607912,None,,,,,3,2,2020_Nov_05_2129,configural_featural,2020.2.4,None,[3584 2240],
conf_haus,Designs/instructions_haus_1234.png,,,,,0,0,0,0,27,0,27,0,,,,,,,,,,,,,,,,,,,,,,,,,,,,,,,,,,,,,,,,,,,,,,,,,,,,,,,,,,1,-0.16396608,0.0,Stimuli/H-8sim0.png,Stimuli/H-8sim3.png,None,None,None,j,1,0.3954049509484321,None,170.54332166409586,None,,,,,3,2,2020_Nov_05_2129,configural_featural,2020.2.4,None,[3584 2240],
conf_haus,Designs/instructions_haus_1234.png,,,,,0,0,0,0,28,0,28,0,,,,,,,,,,,,,,,,,,,,,,,,,,,,,,,,,,,,,,,,,,,,,,,,,,,,,,,,,,1,-0.16396608,1.0,Stimuli/H-8sim0.png,Stimuli/H-8sim0.png,space,None,space,j,0,0.10372821090277284,None,171.65758935606573,None,0.06121745798736811,0.050711406976915896,,,3,2,2020_Nov_05_2129,configural_featural,2020.2.4,None,[3584 2240],
conf_haus,Designs/instructions_haus_1234.png,,,,,0,0,0,0,29,0,29,0,,,,,,,,,,,,,,,,,,,,,,,,,,,,,,,,,,,,,,,,,,,,,,,,,,,,,,,,,,0,0.16396608,0.0,Stimuli/H-8sim3.png,Stimuli/H-8sim0.png,space,space,None,j,1,0.23441250203177333,None,172.49095695500728,None,0.01845690398477018,,0.22727151203434914,,3,2,2020_Nov_05_2129,configural_featural,2020.2.4,None,[3584 2240],
conf_haus,Designs/instructions_haus_1234.png,,,,,0,0,0,0,30,0,30,0,,,,,,,,,,,,,,,,,,,,,,,,,,,,,,,,,,,,,,,,,,,,,,,,,,,,,,,,,,0,0.16396608,1.0,Stimuli/H-8sim2.png,Stimuli/H-8sim2.png,None,None,None,j,0,0.12228801299352199,None,173.44337644905318,None,,,,,3,2,2020_Nov_05_2129,configural_featural,2020.2.4,None,[3584 2240],
conf_haus,Designs/instructions_haus_1234.png,,,,,0,0,0,0,31,0,31,0,,,,,,,,,,,,,,,,,,,,,,,,,,,,,,,,,,,,,,,,,,,,,,,,,,,,,,,,,,0,0.16396608,0.0,Stimuli/H-8sim1.png,Stimuli/H-8sim2.png,None,None,None,j,1,0.18069314502645284,None,174.29093403101433,None,,,,,3,2,2020_Nov_05_2129,configural_featural,2020.2.4,None,[3584 2240],
conf_haus,Designs/instructions_haus_1234.png,,,,,0,0,0,0,32,0,32,0,,,,,,,,,,,,,,,,,,,,,,,,,,,,,,,,,,,,,,,,,,,,,,,,,,,,,,,,,,0,0.16396608,0.0,Stimuli/H-8sim2.png,Stimuli/H-8sim1.png,None,None,None,j,1,0.18565994990058243,None,175.1929368680576,None,,,,,3,2,2020_Nov_05_2129,configural_featural,2020.2.4,None,[3584 2240],
conf_haus,Designs/instructions_haus_1234.png,,,,,0,0,0,0,33,0,33,0,,,,,,,,,,,,,,,,,,,,,,,,,,,,,,,,,,,,,,,,,,,,,,,,,,,,,,,,,,0,0.16396608,1.0,Stimuli/H-8sim2.png,Stimuli/H-8sim2.png,None,None,None,j,0,1.4928439609939232,None,176.11006800609175,None,,,,,3,2,2020_Nov_05_2129,configural_featural,2020.2.4,None,[3584 2240],
conf_haus,Designs/instructions_haus_1234.png,,,,,0,0,0,0,34,0,34,0,,,,,,,,,,,,,,,,,,,,,,,,,,,,,,,,,,,,,,,,,,,,,,,,,,,,,,,,,,0,-0.16396608,0.0,Stimuli/H-8sim2.png,Stimuli/H-8sim1.png,None,None,None,j,1,0.03116066101938486,None,178.34098198008724,None,,,,,3,2,2020_Nov_05_2129,configural_featural,2020.2.4,None,[3584 2240],
conf_haus,Designs/instructions_haus_1234.png,,,,,0,0,0,0,35,0,35,0,,,,,,,,,,,,,,,,,,,,,,,,,,,,,,,,,,,,,,,,,,,,,,,,,,,,,,,,,,0,0.16396608,1.0,Stimuli/H-8sim3.png,Stimuli/H-8sim3.png,None,None,None,j,0,0.5151706279721111,None,179.09349790599663,None,,,,,3,2,2020_Nov_05_2129,configural_featural,2020.2.4,None,[3584 2240],
conf_haus,Designs/instructions_haus_1234.png,,,,,0,0,0,0,36,0,36,0,,,,,,,,,,,,,,,,,,,,,,,,,,,,,,,,,,,,,,,,,,,,,,,,,,,,,,,,,,0,0.16396608,1.0,Stimuli/H-8sim1.png,Stimuli/H-8sim1.png,None,None,None,j,0,0.030180936097167432,None,180.34098931308836,None,,,,,3,2,2020_Nov_05_2129,configural_featural,2020.2.4,None,[3584 2240],
conf_haus,Designs/instructions_haus_1234.png,,,,,0,0,0,0,37,0,37,0,,,,,,,,,,,,,,,,,,,,,,,,,,,,,,,,,,,,,,,,,,,,,,,,,,,,,,,,,,1,0.16396608,0.0,Stimuli/H-8sim1.png,Stimuli/H-8sim3.png,None,None,None,j,1,0.15369009494315833,None,181.10761147609446,None,,,,,3,2,2020_Nov_05_2129,configural_featural,2020.2.4,None,[3584 2240],
conf_haus,Designs/instructions_haus_1234.png,,,,,0,0,0,0,38,0,38,0,,,,,,,,,,,,,,,,,,,,,,,,,,,,,,,,,,,,,,,,,,,,,,,,,,,,,,,,,,0,0.16396608,1.0,Stimuli/H-8sim0.png,Stimuli/H-8sim0.png,None,None,None,j,0,0.3895793539704755,None,181.9910345200915,None,,,,,3,2,2020_Nov_05_2129,configural_featural,2020.2.4,None,[3584 2240],
conf_haus,Designs/instructions_haus_1234.png,,,,,0,0,0,0,39,0,39,0,,,,,,,,,,,,,,,,,,,,,,,,,,,,,,,,,,,,,,,,,,,,,,,,,,,,,,,,,,0,0.16396608,0.0,Stimuli/H-8sim0.png,Stimuli/H-8sim1.png,None,None,None,j,1,0.34187122201547027,None,183.1075456610415,None,,,,,3,2,2020_Nov_05_2129,configural_featural,2020.2.4,None,[3584 2240],
conf_haus,Designs/instructions_haus_1234.png,,,,,0,0,0,0,40,0,40,0,,,,,,,,,,,,,,,,,,,,,,,,,,,,,,,,,,,,,,,,,,,,,,,,,,,,,,,,,,1,-0.16396608,0.0,Stimuli/H-8sim3.png,Stimuli/H-8sim1.png,None,None,None,j,1,0.26961991703137755,None,184.1741076600738,None,,,,,3,2,2020_Nov_05_2129,configural_featural,2020.2.4,None,[3584 2240],
conf_haus,Designs/instructions_haus_1234.png,,,,,0,0,0,0,41,0,41,0,,,,,,,,,,,,,,,,,,,,,,,,,,,,,,,,,,,,,,,,,,,,,,,,,,,,,,,,,,0,-0.16396608,1.0,Stimuli/H-8sim1.png,Stimuli/H-8sim1.png,None,None,None,j,0,0.21940599801018834,None,185.17407975299284,None,,,,,3,2,2020_Nov_05_2129,configural_featural,2020.2.4,None,[3584 2240],
conf_haus,Designs/instructions_haus_1234.png,,,,,0,0,0,0,42,0,42,0,,,,,,,,,,,,,,,,,,,,,,,,,,,,,,,,,,,,,,,,,,,,,,,,,,,,,,,,,,0,-0.16396608,0.0,Stimuli/H-8sim3.png,Stimuli/H-8sim2.png,None,None,None,j,1,1.1994796459330246,None,186.14093215507455,None,,,,,3,2,2020_Nov_05_2129,configural_featural,2020.2.4,None,[3584 2240],
conf_haus,Designs/instructions_haus_1234.png,,,,,0,0,0,0,43,0,43,0,,,,,,,,,,,,,,,,,,,,,,,,,,,,,,,,,,,,,,,,,,,,,,,,,,,,,,,,,,0,-0.16396608,1.0,Stimuli/H-8sim0.png,Stimuli/H-8sim0.png,None,None,None,j,0,1.2566619089338928,None,188.07434656610712,None,,,,,3,2,2020_Nov_05_2129,configural_featural,2020.2.4,None,[3584 2240],
conf_haus,Designs/instructions_haus_1234.png,,,,,0,0,0,0,44,0,44,0,,,,,,,,,,,,,,,,,,,,,,,,,,,,,,,,,,,,,,,,,,,,,,,,,,,,,,,,,,0,0.16396608,0.0,Stimuli/H-8sim2.png,Stimuli/H-8sim0.png,None,None,None,j,1,0.09084374399390072,None,190.07436711003538,None,,,,,3,2,2020_Nov_05_2129,configural_featural,2020.2.4,None,[3584 2240],
conf_haus,Designs/instructions_haus_1234.png,,,,,0,0,0,0,45,0,45,0,,,,,,,,,,,,,,,,,,,,,,,,,,,,,,,,,,,,,,,,,,,,,,,,,,,,,,,,,,0,-0.16396608,1.0,Stimuli/H-8sim3.png,Stimuli/H-8sim3.png,None,None,None,j,0,0.19198469805996865,None,190.8910569930449,None,,,,,3,2,2020_Nov_05_2129,configural_featural,2020.2.4,None,[3584 2240],
conf_haus,Designs/instructions_haus_1234.png,,,,,0,0,0,0,46,0,46,0,,,,,,,,,,,,,,,,,,,,,,,,,,,,,,,,,,,,,,,,,,,,,,,,,,,,,,,,,,0,-0.16396608,1.0,Stimuli/H-8sim2.png,Stimuli/H-8sim2.png,None,None,None,j,0,0.25280657690018415,None,191.80775477702264,None,,,,,3,2,2020_Nov_05_2129,configural_featural,2020.2.4,None,[3584 2240],
conf_haus,Designs/instructions_haus_1234.png,,,,,0,0,0,0,47,0,47,0,,,,,,,,,,,,,,,,,,,,,,,,,,,,,,,,,,,,,,,,,,,,,,,,,,,,,,,,,,0,-0.16396608,0.0,Stimuli/H-8sim3.png,Stimuli/H-8sim0.png,None,None,None,j,1,0.8791290989611298,None,192.81002451409586,None,,,,,3,2,2020_Nov_05_2129,configural_featural,2020.2.4,None,[3584 2240],
conf_face,Designs/instructions_face_1234.png,,,,,0,1,1,1,0,0,0,0,,,,,,,,,,,,,,,,,,,,,,,,,,,,,,,,,,,,,,,,,,,,,,,,,,,,,,,,,,0,0.16396608,1.0,Stimuli/edmd.png,Stimuli/edmd.png,None,None,None,j,0,0.34157570300158113,None,197.0244588080095,None,,,,,3,2,2020_Nov_05_2129,configural_featural,2020.2.4,None,[3584 2240],
conf_face,Designs/instructions_face_1234.png,,,,,0,1,1,1,1,0,1,0,,,,,,,,,,,,,,,,,,,,,,,,,,,,,,,,,,,,,,,,,,,,,,,,,,,,,,,,,,0,-0.16396608,0.0,Stimuli/eimd.png,Stimuli/eumu.png,None,None,None,j,1,0.16501315392088145,None,198.10772378905676,None,,,,,3,2,2020_Nov_05_2129,configural_featural,2020.2.4,None,[3584 2240],
conf_face,Designs/instructions_face_1234.png,,,,,0,1,1,1,2,0,2,0,,,,,,,,,,,,,,,,,,,,,,,,,,,,,,,,,,,,,,,,,,,,,,,,,,,,,,,,,,0,0.16396608,0.0,Stimuli/eimd.png,Stimuli/edmd.png,None,None,None,j,1,0.7445467519573867,None,199.0101035850821,None,,,,,3,2,2020_Nov_05_2129,configural_featural,2020.2.4,None,[3584 2240],
conf_face,Designs/instructions_face_1234.png,,,,,0,1,1,1,3,0,3,0,,,,,,,,,,,,,,,,,,,,,,,,,,,,,,,,,,,,,,,,,,,,,,,,,,,,,,,,,,0,-0.16396608,0.0,Stimuli/eimd.png,Stimuli/eomu.png,None,None,None,j,1,0.1511813719989732,None,200.47450683102943,None,,,,,3,2,2020_Nov_05_2129,configural_featural,2020.2.4,None,[3584 2240],
conf_face,Designs/instructions_face_1234.png,,,,,0,1,1,1,4,0,4,0,,,,,,,,,,,,,,,,,,,,,,,,,,,,,,,,,,,,,,,,,,,,,,,,,,,,,,,,,,0,-0.16396608,1.0,Stimuli/eumu.png,Stimuli/eumu.png,None,None,None,j,0,0.2401820260565728,None,201.37445347907487,None,,,,,3,2,2020_Nov_05_2129,configural_featural,2020.2.4,None,[3584 2240],
conf_face,Designs/instructions_face_1234.png,,,,,0,1,1,1,5,0,5,0,,,,,,,,,,,,,,,,,,,,,,,,,,,,,,,,,,,,,,,,,,,,,,,,,,,,,,,,,,0,0.16396608,1.0,Stimuli/eimd.png,Stimuli/eimd.png,None,None,None,j,0,0.08702765207272023,None,202.36012596206274,None,,,,,3,2,2020_Nov_05_2129,configural_featural,2020.2.4,None,[3584 2240],
conf_face,Designs/instructions_face_1234.png,,,,,0,1,1,1,6,0,6,0,,,,,,,,,,,,,,,,,,,,,,,,,,,,,,,,,,,,,,,,,,,,,,,,,,,,,,,,,,0,-0.16396608,0.0,Stimuli/edmd.png,Stimuli/eimd.png,None,None,None,j,1,0.11791985691525042,None,203.19106712099165,None,,,,,3,2,2020_Nov_05_2129,configural_featural,2020.2.4,None,[3584 2240],
conf_face,Designs/instructions_face_1234.png,,,,,0,1,1,1,7,0,7,0,,,,,,,,,,,,,,,,,,,,,,,,,,,,,,,,,,,,,,,,,,,,,,,,,,,,,,,,,,0,0.16396608,1.0,Stimuli/eomu.png,Stimuli/eomu.png,None,None,None,j,0,0.36677904799580574,None,204.04117766208947,None,,,,,3,2,2020_Nov_05_2129,configural_featural,2020.2.4,None,[3584 2240],
conf_face,Designs/instructions_face_1234.png,,,,,0,1,1,1,8,0,8,0,,,,,,,,,,,,,,,,,,,,,,,,,,,,,,,,,,,,,,,,,,,,,,,,,,,,,,,,,,0,-0.16396608,1.0,Stimuli/edmd.png,Stimuli/edmd.png,None,None,None,j,0,0.7201257740380242,None,205.14116518001538,None,,,,,3,2,2020_Nov_05_2129,configural_featural,2020.2.4,None,[3584 2240],
conf_face,Designs/instructions_face_1234.png,,,,,0,1,1,1,9,0,9,0,,,,,,,,,,,,,,,,,,,,,,,,,,,,,,,,,,,,,,,,,,,,,,,,,,,,,,,,,,1,0.16396608,0.0,Stimuli/eimd.png,Stimuli/eomu.png,None,None,None,j,1,0.5530004309257492,None,206.61016752105206,None,,,,,3,2,2020_Nov_05_2129,configural_featural,2020.2.4,None,[3584 2240],
conf_face,Designs/instructions_face_1234.png,,,,,0,1,1,1,10,0,10,0,,,,,,,,,,,,,,,,,,,,,,,,,,,,,,,,,,,,,,,,,,,,,,,,,,,,,,,,,,0,0.16396608,0.0,Stimuli/edmd.png,Stimuli/eimd.png,None,None,None,j,1,0.3947659849654883,None,207.90784575405996,None,,,,,3,2,2020_Nov_05_2129,configural_featural,2020.2.4,None,[3584 2240],
conf_face,Designs/instructions_face_1234.png,,,,,0,1,1,1,11,0,11,0,,,,,,,,,,,,,,,,,,,,,,,,,,,,,,,,,,,,,,,,,,,,,,,,,,,,,,,,,,1,-0.16396608,1.0,Stimuli/eimd.png,Stimuli/eimd.png,None,None,None,j,0,0.785271188011393,None,209.02453112904914,None,,,,,3,2,2020_Nov_05_2129,configural_featural,2020.2.4,None,[3584 2240],
conf_face,Designs/instructions_face_1234.png,,,,,0,1,1,1,12,0,12,0,,,,,,,,,,,,,,,,,,,,,,,,,,,,,,,,,,,,,,,,,,,,,,,,,,,,,,,,,,1,-0.16396608,1.0,Stimuli/eomu.png,Stimuli/eomu.png,None,None,None,j,0,0.21500075096264482,None,210.54123382107355,None,,,,,3,2,2020_Nov_05_2129,configural_featural,2020.2.4,None,[3584 2240],
conf_face,Designs/instructions_face_1234.png,,,,,0,1,1,1,13,0,13,0,,,,,,,,,,,,,,,,,,,,,,,,,,,,,,,,,,,,,,,,,,,,,,,,,,,,,,,,,,0,0.16396608,1.0,Stimuli/eumu.png,Stimuli/eumu.png,None,None,None,j,0,0.25199313601478934,None,211.4911905740155,None,,,,,3,2,2020_Nov_05_2129,configural_featural,2020.2.4,None,[3584 2240],
conf_face,Designs/instructions_face_1234.png,,,,,0,1,1,1,14,0,14,0,,,,,,,,,,,,,,,,,,,,,,,,,,,,,,,,,,,,,,,,,,,,,,,,,,,,,,,,,,0,0.16396608,1.0,Stimuli/eumu.png,Stimuli/eumu.png,None,None,None,j,0,2.701162177021615,None,212.4745862830896,None,,,,,3,2,2020_Nov_05_2129,configural_featural,2020.2.4,None,[3584 2240],
conf_face,Designs/instructions_face_1234.png,,,,,0,1,1,1,15,0,15,0,,,,,,,,,,,,,,,,,,,,,,,,,,,,,,,,,,,,,,,,,,,,,,,,,,,,,,,,,,0,0.16396608,0.0,Stimuli/edmd.png,Stimuli/eumu.png,None,None,None,j,1,0.9390660760691389,None,215.90787981101312,None,,,,,3,2,2020_Nov_05_2129,configural_featural,2020.2.4,None,[3584 2240],
conf_face,Designs/instructions_face_1234.png,,,,,0,1,1,1,16,0,16,0,,,,,,,,,,,,,,,,,,,,,,,,,,,,,,,,,,,,,,,,,,,,,,,,,,,,,,,,,,0,-0.16396608,0.0,Stimuli/eumu.png,Stimuli/eomu.png,None,None,None,j,1,0.5168304640101269,None,217.59128439310007,None,,,,,3,2,2020_Nov_05_2129,configural_featural,2020.2.4,None,[3584 2240],
conf_face,Designs/instructions_face_1234.png,,,,,0,1,1,1,17,0,17,0,,,,,,,,,,,,,,,,,,,,,,,,,,,,,,,,,,,,,,,,,,,,,,,,,,,,,,,,,,0,-0.16396608,0.0,Stimuli/eomu.png,Stimuli/edmd.png,None,None,None,j,1,0.2401143090100959,None,218.84129232505802,None,,,,,3,2,2020_Nov_05_2129,configural_featural,2020.2.4,None,[3584 2240],
conf_face,Designs/instructions_face_1234.png,,,,,0,1,1,1,18,0,18,0,,,,,,,,,,,,,,,,,,,,,,,,,,,,,,,,,,,,,,,,,,,,,,,,,,,,,,,,,,0,-0.16396608,0.0,Stimuli/eimd.png,Stimuli/edmd.png,None,None,None,j,1,0.03278817096725106,None,219.8246731410036,None,,,,,3,2,2020_Nov_05_2129,configural_featural,2020.2.4,None,[3584 2240],
conf_face,Designs/instructions_face_1234.png,,,,,0,1,1,1,19,0,19,0,,,,,,,,,,,,,,,,,,,,,,,,,,,,,,,,,,,,,,,,,,,,,,,,,,,,,,,,,,0,0.16396608,0.0,Stimuli/eomu.png,Stimuli/eimd.png,None,None,None,j,1,0.07241788296960294,None,220.5912655700231,None,,,,,3,2,2020_Nov_05_2129,configural_featural,2020.2.4,None,[3584 2240],
conf_face,Designs/instructions_face_1234.png,,,,,0,1,1,1,20,0,20,0,,,,,,,,,,,,,,,,,,,,,,,,,,,,,,,,,,,,,,,,,,,,,,,,,,,,,,,,,,1,-0.16396608,1.0,Stimuli/edmd.png,Stimuli/edmd.png,None,None,None,j,0,0.17270525195635855,None,221.40803169005085,None,,,,,3,2,2020_Nov_05_2129,configural_featural,2020.2.4,None,[3584 2240],
conf_face,Designs/instructions_face_1234.png,,,,,0,1,1,1,21,0,21,0,,,,,,,,,,,,,,,,,,,,,,,,,,,,,,,,,,,,,,,,,,,,,,,,,,,,,,,,,,0,-0.16396608,0.0,Stimuli/eomu.png,Stimuli/eimd.png,None,None,None,j,1,0.04138902004342526,None,222.32368615909945,None,,,,,3,2,2020_Nov_05_2129,configural_featural,2020.2.4,None,[3584 2240],
conf_face,Designs/instructions_face_1234.png,,,,,0,1,1,1,22,0,22,0,,,,,,,,,,,,,,,,,,,,,,,,,,,,,,,,,,,,,,,,,,,,,,,,,,,,,,,,,,0,0.16396608,1.0,Stimuli/eimd.png,Stimuli/eimd.png,None,None,None,j,0,0.6211738609708846,None,223.0909900231054,None,,,,,3,2,2020_Nov_05_2129,configural_featural,2020.2.4,None,[3584 2240],
conf_face,Designs/instructions_face_1234.png,,,,,0,1,1,1,23,0,23,0,,,,,,,,,,,,,,,,,,,,,,,,,,,,,,,,,,,,,,,,,,,,,,,,,,,,,,,,,,0,-0.16396608,1.0,Stimuli/eomu.png,Stimuli/eomu.png,None,None,None,j,0,0.7239039218984544,None,224.45954098110087,None,,,,,3,2,2020_Nov_05_2129,configural_featural,2020.2.4,None,[3584 2240],
conf_face,Designs/instructions_face_1234.png,,,,,0,1,1,1,24,0,24,0,,,,,,,,,,,,,,,,,,,,,,,,,,,,,,,,,,,,,,,,,,,,,,,,,,,,,,,,,,0,-0.16396608,1.0,Stimuli/eumu.png,Stimuli/eumu.png,None,None,None,j,0,0.13244627602398396,None,225.9267917739926,None,,,,,3,2,2020_Nov_05_2129,configural_featural,2020.2.4,None,[3584 2240],
conf_face,Designs/instructions_face_1234.png,,,,,0,1,1,1,25,0,25,0,,,,,,,,,,,,,,,,,,,,,,,,,,,,,,,,,,,,,,,,,,,,,,,,,,,,,,,,,,0,0.16396608,0.0,Stimuli/eomu.png,Stimuli/eumu.png,None,None,None,j,1,0.19417123997118324,None,226.7913712480804,None,,,,,3,2,2020_Nov_05_2129,configural_featural,2020.2.4,None,[3584 2240],
conf_face,Designs/instructions_face_1234.png,,,,,0,1,1,1,26,0,26,0,,,,,,,,,,,,,,,,,,,,,,,,,,,,,,,,,,,,,,,,,,,,,,,,,,,,,,,,,,1,0.16396608,1.0,Stimuli/edmd.png,Stimuli/edmd.png,None,None,None,j,0,0.011066292063333094,None,227.70796725410037,None,,,,,3,2,2020_Nov_05_2129,configural_featural,2020.2.4,None,[3584 2240],
conf_face,Designs/instructions_face_1234.png,,,,,0,1,1,1,27,0,27,0,,,,,,,,,,,,,,,,,,,,,,,,,,,,,,,,,,,,,,,,,,,,,,,,,,,,,,,,,,0,-0.16396608,0.0,Stimuli/eumu.png,Stimuli/edmd.png,None,None,None,j,1,0.4969310100423172,None,228.45803560805507,None,,,,,3,2,2020_Nov_05_2129,configural_featural,2020.2.4,None,[3584 2240],
conf_face,Designs/instructions_face_1234.png,,,,,0,1,1,1,28,0,28,0,,,,,,,,,,,,,,,,,,,,,,,,,,,,,,,,,,,,,,,,,,,,,,,,,,,,,,,,,,0,0.16396608,0.0,Stimuli/eomu.png,Stimuli/edmd.png,None,None,None,j,1,10.398889300995506,None,229.67723108909559,None,,,,,3,2,2020_Nov_05_2129,configural_featural,2020.2.4,None,[3584 2240],
conf_face,Designs/instructions_face_1234.png,,,,,0,1,1,1,29,0,29,0,,,,,,,,,,,,,,,,,,,,,,,,,,,,,,,,,,,,,,,,,,,,,,,,,,,,,,,,,,0,0.16396608,1.0,Stimuli/eomu.png,Stimuli/eomu.png,None,None,None,f,1,0.262585663003847,None,240.82481128303334,None,,,,,3,2,2020_Nov_05_2129,configural_featural,2020.2.4,None,[3584 2240],
conf_face,Designs/instructions_face_1234.png,,,,,0,1,1,1,30,0,30,0,,,,,,,,,,,,,,,,,,,,,,,,,,,,,,,,,,,,,,,,,,,,,,,,,,,,,,,,,,0,0.16396608,0.0,Stimuli/eumu.png,Stimuli/eimd.png,None,None,None,f,0,3.325727157993242,None,241.80786274001002,None,,,,,3,2,2020_Nov_05_2129,configural_featural,2020.2.4,None,[3584 2240],
conf_face,Designs/instructions_face_1234.png,,,,,0,1,1,1,31,0,31,0,,,,,,,,,,,,,,,,,,,,,,,,,,,,,,,,,,,,,,,,,,,,,,,,,,,,,,,,,,0,-0.16396608,1.0,Stimuli/eimd.png,Stimuli/eimd.png,None,None,None,f,1,1.369806619011797,None,245.87440988910384,None,,,,,3,2,2020_Nov_05_2129,configural_featural,2020.2.4,None,[3584 2240],
conf_face,Designs/instructions_face_1234.png,,,,,0,1,1,1,32,0,32,0,,,,,,,,,,,,,,,,,,,,,,,,,,,,,,,,,,,,,,,,,,,,,,,,,,,,,,,,,,0,-0.16396608,1.0,Stimuli/eimd.png,Stimuli/eimd.png,None,None,None,f,1,3.6743519530864432,None,247.9749124480877,None,,,,,3,2,2020_Nov_05_2129,configural_featural,2020.2.4,None,[3584 2240],
conf_face,Designs/instructions_face_1234.png,,,,,0,1,1,1,33,0,33,0,,,,,,,,,,,,,,,,,,,,,,,,,,,,,,,,,,,,,,,,,,,,,,,,,,,,,,,,,,0,0.16396608,0.0,Stimuli/eimd.png,Stimuli/eumu.png,None,None,None,f,0,0.8718468580627814,None,252.37490156607237,None,,,,,3,2,2020_Nov_05_2129,configural_featural,2020.2.4,None,[3584 2240],
conf_face,Designs/instructions_face_1234.png,,,,,0,1,1,1,34,0,34,0,,,,,,,,,,,,,,,,,,,,,,,,,,,,,,,,,,,,,,,,,,,,,,,,,,,,,,,,,,0,-0.16396608,0.0,Stimuli/edmd.png,Stimuli/eumu.png,None,None,None,f,0,0.8428875869140029,None,253.9749322120333,None,,,,,3,2,2020_Nov_05_2129,configural_featural,2020.2.4,None,[3584 2240],
conf_face,Designs/instructions_face_1234.png,,,,,0,1,1,1,35,0,35,0,,,,,,,,,,,,,,,,,,,,,,,,,,,,,,,,,,,,,,,,,,,,,,,,,,,,,,,,,,0,-0.16396608,1.0,Stimuli/eomu.png,Stimuli/eomu.png,None,None,None,f,1,2.597161185927689,None,255.55824383103754,None,,,,,3,2,2020_Nov_05_2129,configural_featural,2020.2.4,None,[3584 2240],
conf_face,Designs/instructions_face_1234.png,,,,,0,1,1,1,36,0,36,0,,,,,,,,,,,,,,,,,,,,,,,,,,,,,,,,,,,,,,,,,,,,,,,,,,,,,,,,,,0,0.16396608,1.0,Stimuli/eimd.png,Stimuli/eimd.png,None,None,None,f,1,2.6624170900322497,None,258.87497357907705,None,,,,,3,2,2020_Nov_05_2129,configural_featural,2020.2.4,None,[3584 2240],
conf_face,Designs/instructions_face_1234.png,,,,,0,1,1,1,37,0,37,0,,,,,,,,,,,,,,,,,,,,,,,,,,,,,,,,,,,,,,,,,,,,,,,,,,,,,,,,,,0,0.16396608,0.0,Stimuli/eumu.png,Stimuli/eomu.png,None,None,None,f,0,6.477624341030605,None,262.25825237308163,None,,,,,3,2,2020_Nov_05_2129,configural_featural,2020.2.4,None,[3584 2240],
conf_face,Designs/instructions_face_1234.png,,,,,0,1,1,1,38,0,38,0,,,,,,,,,,,,,,,,,,,,,,,,,,,,,,,,,,,,,,,,,,,,,,,,,,,,,,,,,,0,-0.16396608,0.0,Stimuli/eomu.png,Stimuli/eumu.png,None,None,None,f,0,23.363595572067425,None,269.4583315839991,None,,,,,3,2,2020_Nov_05_2129,configural_featural,2020.2.4,None,[3584 2240],
conf_face,Designs/instructions_face_1234.png,,,,,0,1,1,1,39,0,39,0,,,,,,,,,,,,,,,,,,,,,,,,,,,,,,,,,,,,,,,,,,,,,,,,,,,,,,,,,,0,-0.16396608,1.0,Stimuli/edmd.png,Stimuli/edmd.png,None,None,None,f,1,0.3947817680891603,None,293.5585983810015,None,,,,,3,2,2020_Nov_05_2129,configural_featural,2020.2.4,None,[3584 2240],
conf_face,Designs/instructions_face_1234.png,,,,,0,1,1,1,40,0,40,0,,,,,,,,,,,,,,,,,,,,,,,,,,,,,,,,,,,,,,,,,,,,,,,,,,,,,,,,,,0,0.16396608,0.0,Stimuli/eumu.png,Stimuli/edmd.png,None,None,None,f,0,0.47545498504769057,None,294.6749600149924,None,,,,,3,2,2020_Nov_05_2129,configural_featural,2020.2.4,None,[3584 2240],
conf_face,Designs/instructions_face_1234.png,,,,,0,1,1,1,41,0,41,0,,,,,,,,,,,,,,,,,,,,,,,,,,,,,,,,,,,,,,,,,,,,,,,,,,,,,,,,,,0,0.16396608,1.0,Stimuli/eumu.png,Stimuli/eumu.png,None,None,None,f,1,0.5648286290233955,None,295.89193894306663,None,,,,,3,2,2020_Nov_05_2129,configural_featural,2020.2.4,None,[3584 2240],
conf_face,Designs/instructions_face_1234.png,,,,,0,1,1,1,42,0,42,0,,,,,,,,,,,,,,,,,,,,,,,,,,,,,,,,,,,,,,,,,,,,,,,,,,,,,,,,,,0,0.16396608,1.0,Stimuli/edmd.png,Stimuli/edmd.png,None,None,None,f,1,0.38042309298180044,None,297.19199809303973,None,,,,,3,2,2020_Nov_05_2129,configural_featural,2020.2.4,None,[3584 2240],
conf_face,Designs/instructions_face_1234.png,,,,,0,1,1,1,43,0,43,0,,,,,,,,,,,,,,,,,,,,,,,,,,,,,,,,,,,,,,,,,,,,,,,,,,,,,,,,,,0,-0.16396608,0.0,Stimuli/edmd.png,Stimuli/eomu.png,None,None,None,f,0,0.05027843592688441,None,298.30861499300227,None,,,,,3,2,2020_Nov_05_2129,configural_featural,2020.2.4,None,[3584 2240],
conf_face,Designs/instructions_face_1234.png,,,,,0,1,1,1,44,0,44,0,,,,,,,,,,,,,,,,,,,,,,,,,,,,,,,,,,,,,,,,,,,,,,,,,,,,,,,,,,1,-0.16396608,1.0,Stimuli/eumu.png,Stimuli/eumu.png,None,None,None,f,1,0.30906784802209586,None,299.11098424205557,None,,,,,3,2,2020_Nov_05_2129,configural_featural,2020.2.4,None,[3584 2240],
conf_face,Designs/instructions_face_1234.png,,,,,0,1,1,1,45,0,45,0,,,,,,,,,,,,,,,,,,,,,,,,,,,,,,,,,,,,,,,,,,,,,,,,,,,,,,,,,,0,0.16396608,0.0,Stimuli/edmd.png,Stimuli/eomu.png,None,None,None,f,0,0.11107548500876874,None,300.160884929006,None,,,,,3,2,2020_Nov_05_2129,configural_featural,2020.2.4,None,[3584 2240],
conf_face,Designs/instructions_face_1234.png,,,,,0,1,1,1,46,0,46,0,,,,,,,,,,,,,,,,,,,,,,,,,,,,,,,,,,,,,,,,,,,,,,,,,,,,,,,,,,0,0.16396608,1.0,Stimuli/eomu.png,Stimuli/eomu.png,None,None,None,f,1,0.12814383301883936,None,300.9919650150696,None,,,,,3,2,2020_Nov_05_2129,configural_featural,2020.2.4,None,[3584 2240],
conf_face,Designs/instructions_face_1234.png,,,,,0,1,1,1,47,0,47,0,,,,,,,,,,,,,,,,,,,,,,,,,,,,,,,,,,,,,,,,,,,,,,,,,,,,,,,,,,0,-0.16396608,0.0,Stimuli/eumu.png,Stimuli/eimd.png,None,None,None,f,0,0.9449961419450119,None,301.8606970080873,None,,,,,3,2,2020_Nov_05_2129,configural_featural,2020.2.4,None,[3584 2240],
feat_haus,Designs/instructions_haus_1234.png,,,,,0,2,2,2,0,0,0,0,,,,,,,,,,,,,,,,,,,,,,,,,,,,,,,,,,,,,,,,,,,,,,,,,,,,,,,,,,0,-0.16396608,0.0,Stimuli/H7sim0.png,Stimuli/H5sim0.png,None,None,None,f,0,0.2336426409892738,None,305.8086360950256,None,,,,,3,2,2020_Nov_05_2129,configural_featural,2020.2.4,None,[3584 2240],
feat_haus,Designs/instructions_haus_1234.png,,,,,0,2,2,2,1,0,1,0,,,,,,,,,,,,,,,,,,,,,,,,,,,,,,,,,,,,,,,,,,,,,,,,,,,,,,,,,,0,-0.16396608,1.0,Stimuli/H8sim0.png,Stimuli/H8sim0.png,None,None,None,f,1,0.24968449503649026,None,306.758628348005,None,,,,,3,2,2020_Nov_05_2129,configural_featural,2020.2.4,None,[3584 2240],
feat_haus,Designs/instructions_haus_1234.png,,,,,0,2,2,2,2,0,2,0,,,,,,,,,,,,,,,,,,,,,,,,,,,,,,,,,,,,,,,,,,,,,,,,,,,,,,,,,,0,-0.16396608,0.0,Stimuli/H6sim0.png,Stimuli/H5sim0.png,None,None,None,f,0,0.21081362303812057,None,307.7253367420053,None,,,,,3,2,2020_Nov_05_2129,configural_featural,2020.2.4,None,[3584 2240],
feat_haus,Designs/instructions_haus_1234.png,,,,,0,2,2,2,3,0,3,0,,,,,,,,,,,,,,,,,,,,,,,,,,,,,,,,,,,,,,,,,,,,,,,,,,,,,,,,,,0,-0.16396608,1.0,Stimuli/H5sim0.png,Stimuli/H5sim0.png,None,None,None,f,1,0.5965726120630279,None,308.6586781620281,None,,,,,3,2,2020_Nov_05_2129,configural_featural,2020.2.4,None,[3584 2240],
feat_haus,Designs/instructions_haus_1234.png,,,,,0,2,2,2,4,0,4,0,,,,,,,,,,,,,,,,,,,,,,,,,,,,,,,,,,,,,,,,,,,,,,,,,,,,,,,,,,0,0.16396608,0.0,Stimuli/H5sim0.png,Stimuli/H7sim0.png,None,None,None,f,0,0.30496269499417394,None,309.97535011707805,None,,,,,3,2,2020_Nov_05_2129,configural_featural,2020.2.4,None,[3584 2240],
feat_haus,Designs/instructions_haus_1234.png,,,,,0,2,2,2,5,0,5,0,,,,,,,,,,,,,,,,,,,,,,,,,,,,,,,,,,,,,,,,,,,,,,,,,,,,,,,,,,0,-0.16396608,1.0,Stimuli/H6sim0.png,Stimuli/H6sim0.png,None,None,None,f,1,0.5103403830435127,None,311.02747617207933,None,,,,,3,2,2020_Nov_05_2129,configural_featural,2020.2.4,None,[3584 2240],
feat_haus,Designs/instructions_haus_1234.png,,,,,0,2,2,2,6,0,6,0,,,,,,,,,,,,,,,,,,,,,,,,,,,,,,,,,,,,,,,,,,,,,,,,,,,,,,,,,,0,-0.16396608,1.0,Stimuli/H7sim0.png,Stimuli/H7sim0.png,None,None,None,f,1,0.34708265494555235,None,312.2587065231055,None,,,,,3,2,2020_Nov_05_2129,configural_featural,2020.2.4,None,[3584 2240],
feat_haus,Designs/instructions_haus_1234.png,,,,,0,2,2,2,7,0,7,0,,,,,,,,,,,,,,,,,,,,,,,,,,,,,,,,,,,,,,,,,,,,,,,,,,,,,,,,,,1,-0.16396608,1.0,Stimuli/H8sim0.png,Stimuli/H8sim0.png,None,None,None,f,1,0.1806472820462659,None,313.3253226070665,None,,,,,3,2,2020_Nov_05_2129,configural_featural,2020.2.4,None,[3584 2240],
feat_haus,Designs/instructions_haus_1234.png,,,,,0,2,2,2,8,0,8,0,,,,,,,,,,,,,,,,,,,,,,,,,,,,,,,,,,,,,,,,,,,,,,,,,,,,,,,,,,1,0.16396608,0.0,Stimuli/H8sim0.png,Stimuli/H6sim0.png,None,None,None,f,0,0.2933745749760419,None,314.24192599300295,None,,,,,3,2,2020_Nov_05_2129,configural_featural,2020.2.4,None,[3584 2240],
feat_haus,Designs/instructions_haus_1234.png,,,,,0,2,2,2,9,0,9,0,,,,,,,,,,,,,,,,,,,,,,,,,,,,,,,,,,,,,,,,,,,,,,,,,,,,,,,,,,1,-0.16396608,0.0,Stimuli/H8sim0.png,Stimuli/H7sim0.png,None,None,None,f,0,0.06776612100657076,None,315.258681765059,None,,,,,3,2,2020_Nov_05_2129,configural_featural,2020.2.4,None,[3584 2240],
feat_haus,Designs/instructions_haus_1234.png,,,,,0,2,2,2,10,0,10,0,,,,,,,,,,,,,,,,,,,,,,,,,,,,,,,,,,,,,,,,,,,,,,,,,,,,,,,,,,0,0.16396608,1.0,Stimuli/H7sim0.png,Stimuli/H7sim0.png,None,None,None,f,1,0.00992118800058961,None,316.04202548007015,None,,,,,3,2,2020_Nov_05_2129,configural_featural,2020.2.4,None,[3584 2240],
feat_haus,Designs/instructions_haus_1234.png,,,,,0,2,2,2,11,0,11,0,,,,,,,,,,,,,,,,,,,,,,,,,,,,,,,,,,,,,,,,,,,,,,,,,,,,,,,,,,0,0.16396608,0.0,Stimuli/H7sim0.png,Stimuli/H8sim0.png,None,None,None,f,0,0.11683573899790645,None,316.79202570102643,None,,,,,3,2,2020_Nov_05_2129,configural_featural,2020.2.4,None,[3584 2240],
feat_haus,Designs/instructions_haus_1234.png,,,,,0,2,2,2,12,0,12,0,,,,,,,,,,,,,,,,,,,,,,,,,,,,,,,,,,,,,,,,,,,,,,,,,,,,,,,,,,0,0.16396608,1.0,Stimuli/H5sim0.png,Stimuli/H5sim0.png,None,None,None,f,1,0.6155122149502859,None,317.6445764830569,None,,,,,3,2,2020_Nov_05_2129,configural_featural,2020.2.4,None,[3584 2240],
feat_haus,Designs/instructions_haus_1234.png,,,,,0,2,2,2,13,0,13,0,,,,,,,,,,,,,,,,,,,,,,,,,,,,,,,,,,,,,,,,,,,,,,,,,,,,,,,,,,0,-0.16396608,0.0,Stimuli/H8sim0.png,Stimuli/H5sim0.png,None,None,None,f,0,0.03328594705089927,None,318.992112988024,None,,,,,3,2,2020_Nov_05_2129,configural_featural,2020.2.4,None,[3584 2240],
feat_haus,Designs/instructions_haus_1234.png,,,,,0,2,2,2,14,0,14,0,,,,,,,,,,,,,,,,,,,,,,,,,,,,,,,,,,,,,,,,,,,,,,,,,,,,,,,,,,0,0.16396608,1.0,Stimuli/H6sim0.png,Stimuli/H6sim0.png,None,None,None,f,1,0.6901037020143121,None,319.74223843205255,None,,,,,3,2,2020_Nov_05_2129,configural_featural,2020.2.4,None,[3584 2240],
feat_haus,Designs/instructions_haus_1234.png,,,,,0,2,2,2,15,0,15,0,,,,,,,,,,,,,,,,,,,,,,,,,,,,,,,,,,,,,,,,,,,,,,,,,,,,,,,,,,0,0.16396608,0.0,Stimuli/H6sim0.png,Stimuli/H5sim0.png,None,None,None,f,0,0.5616076509468257,None,321.15862117300276,None,,,,,3,2,2020_Nov_05_2129,configural_featural,2020.2.4,None,[3584 2240],
feat_haus,Designs/instructions_haus_1234.png,,,,,0,2,2,2,16,0,16,0,,,,,,,,,,,,,,,,,,,,,,,,,,,,,,,,,,,,,,,,,,,,,,,,,,,,,,,,,,0,-0.16396608,0.0,Stimuli/H6sim0.png,Stimuli/H7sim0.png,None,None,None,f,0,0.38556439196690917,None,322.444519864046,None,,,,,3,2,2020_Nov_05_2129,configural_featural,2020.2.4,None,[3584 2240],
feat_haus,Designs/instructions_haus_1234.png,,,,,0,2,2,2,17,0,17,0,,,,,,,,,,,,,,,,,,,,,,,,,,,,,,,,,,,,,,,,,,,,,,,,,,,,,,,,,,0,0.16396608,1.0,Stimuli/H8sim0.png,Stimuli/H8sim0.png,None,None,None,f,1,4.707810403080657,None,323.5612210780382,None,,,,,3,2,2020_Nov_05_2129,configural_featural,2020.2.4,None,[3584 2240],
feat_haus,Designs/instructions_haus_1234.png,,,,,0,2,2,2,18,0,18,0,,,,,,,,,,,,,,,,,,,,,,,,,,,,,,,,,,,,,,,,,,,,,,,,,,,,,,,,,,1,0.16396608,0.0,Stimuli/H8sim0.png,Stimuli/H7sim0.png,None,None,None,f,0,3.2074130539549515,None,328.9921037351014,None,,,,,3,2,2020_Nov_05_2129,configural_featural,2020.2.4,None,[3584 2240],
feat_haus,Designs/instructions_haus_1234.png,,,,,0,2,2,2,19,0,19,0,,,,,,,,,,,,,,,,,,,,,,,,,,,,,,,,,,,,,,,,,,,,,,,,,,,,,,,,,,1,0.16396608,1.0,Stimuli/H8sim0.png,Stimuli/H8sim0.png,None,None,None,f,1,0.4594059500377625,None,332.9255460270215,None,,,,,3,2,2020_Nov_05_2129,configural_featural,2020.2.4,None,[3584 2240],
feat_haus,Designs/instructions_haus_1234.png,,,,,0,2,2,2,20,0,20,0,,,,,,,,,,,,,,,,,,,,,,,,,,,,,,,,,,,,,,,,,,,,,,,,,,,,,,,,,,0,0.16396608,1.0,Stimuli/H6sim0.png,Stimuli/H6sim0.png,None,None,None,f,1,2.082846308941953,None,334.12780446209945,None,,,,,3,2,2020_Nov_05_2129,configural_featural,2020.2.4,None,[3584 2240],
feat_haus,Designs/instructions_haus_1234.png,,,,,0,2,2,2,21,0,21,0,,,,,,,,,,,,,,,,,,,,,,,,,,,,,,,,,,,,,,,,,,,,,,,,,,,,,,,,,,0,0.16396608,1.0,Stimuli/H5sim0.png,Stimuli/H5sim0.png,None,None,None,f,1,0.3593582509784028,None,336.927843239042,None,,,,,3,2,2020_Nov_05_2129,configural_featural,2020.2.4,None,[3584 2240],
feat_haus,Designs/instructions_haus_1234.png,,,,,0,2,2,2,22,0,22,0,,,,,,,,,,,,,,,,,,,,,,,,,,,,,,,,,,,,,,,,,,,,,,,,,,,,,,,,,,0,0.16396608,0.0,Stimuli/H6sim0.png,Stimuli/H7sim0.png,None,None,None,f,0,0.31064287503249943,None,338.0255136550404,None,,,,,3,2,2020_Nov_05_2129,configural_featural,2020.2.4,None,[3584 2240],
feat_haus,Designs/instructions_haus_1234.png,,,,,0,2,2,2,23,0,23,0,,,,,,,,,,,,,,,,,,,,,,,,,,,,,,,,,,,,,,,,,,,,,,,,,,,,,,,,,,0,0.16396608,0.0,Stimuli/H6sim0.png,Stimuli/H8sim0.png,None,None,None,f,0,0.9669114670250565,None,339.06130108004436,None,,,,,3,2,2020_Nov_05_2129,configural_featural,2020.2.4,None,[3584 2240],
feat_haus,Designs/instructions_haus_1234.png,,,,,0,2,2,2,24,0,24,0,,,,,,,,,,,,,,,,,,,,,,,,,,,,,,,,,,,,,,,,,,,,,,,,,,,,,,,,,,0,0.16396608,0.0,Stimuli/H8sim0.png,Stimuli/H5sim0.png,None,None,None,f,0,3.394967881962657,None,340.7614255300723,None,,,,,3,2,2020_Nov_05_2129,configural_featural,2020.2.4,None,[3584 2240],
feat_haus,Designs/instructions_haus_1234.png,,,,,0,2,2,2,25,0,25,0,,,,,,,,,,,,,,,,,,,,,,,,,,,,,,,,,,,,,,,,,,,,,,,,,,,,,,,,,,0,-0.16396608,1.0,Stimuli/H7sim0.png,Stimuli/H7sim0.png,None,None,None,f,1,0.3877256599953398,None,344.8756276810309,None,,,,,3,2,2020_Nov_05_2129,configural_featural,2020.2.4,None,[3584 2240],
feat_haus,Designs/instructions_haus_1234.png,,,,,0,2,2,2,26,0,26,0,,,,,,,,,,,,,,,,,,,,,,,,,,,,,,,,,,,,,,,,,,,,,,,,,,,,,,,,,,0,0.16396608,0.0,Stimuli/H7sim0.png,Stimuli/H5sim0.png,None,None,None,f,0,0.5619280319660902,None,345.9923100360902,None,,,,,3,2,2020_Nov_05_2129,configural_featural,2020.2.4,None,[3584 2240],
feat_haus,Designs/instructions_haus_1234.png,,,,,0,2,2,2,27,0,27,0,,,,,,,,,,,,,,,,,,,,,,,,,,,,,,,,,,,,,,,,,,,,,,,,,,,,,,,,,,0,-0.16396608,1.0,Stimuli/H5sim0.png,Stimuli/H5sim0.png,None,None,None,f,1,0.06121642095968127,None,347.275652396027,None,,,,,3,2,2020_Nov_05_2129,configural_featural,2020.2.4,None,[3584 2240],
feat_haus,Designs/instructions_haus_1234.png,,,,,0,2,2,2,28,0,28,0,,,,,,,,,,,,,,,,,,,,,,,,,,,,,,,,,,,,,,,,,,,,,,,,,,,,,,,,,,0,0.16396608,1.0,Stimuli/H7sim0.png,Stimuli/H7sim0.png,None,None,None,f,1,0.4741568829631433,None,348.0756585469935,None,,,,,3,2,2020_Nov_05_2129,configural_featural,2020.2.4,None,[3584 2240],
feat_haus,Designs/instructions_haus_1234.png,,,,,0,2,2,2,29,0,29,0,,,,,,,,,,,,,,,,,,,,,,,,,,,,,,,,,,,,,,,,,,,,,,,,,,,,,,,,,,0,-0.16396608,0.0,Stimuli/H7sim0.png,Stimuli/H8sim0.png,None,None,None,f,0,0.08257029810920358,None,349.27564651705325,None,,,,,3,2,2020_Nov_05_2129,configural_featural,2020.2.4,None,[3584 2240],
feat_haus,Designs/instructions_haus_1234.png,,,,,0,2,2,2,30,0,30,0,,,,,,,,,,,,,,,,,,,,,,,,,,,,,,,,,,,,,,,,,,,,,,,,,,,,,,,,,,0,0.16396608,1.0,Stimuli/H8sim0.png,Stimuli/H8sim0.png,None,None,None,f,1,0.458418266964145,None,350.0756669220282,None,,,,,3,2,2020_Nov_05_2129,configural_featural,2020.2.4,None,[3584 2240],
feat_haus,Designs/instructions_haus_1234.png,,,,,0,2,2,2,31,0,31,0,,,,,,,,,,,,,,,,,,,,,,,,,,,,,,,,,,,,,,,,,,,,,,,,,,,,,,,,,,0,-0.16396608,1.0,Stimuli/H6sim0.png,Stimuli/H6sim0.png,None,None,None,f,1,0.23117027594707906,None,351.2590296000708,None,,,,,3,2,2020_Nov_05_2129,configural_featural,2020.2.4,None,[3584 2240],
feat_haus,Designs/instructions_haus_1234.png,,,,,0,2,2,2,32,0,32,0,,,,,,,,,,,,,,,,,,,,,,,,,,,,,,,,,,,,,,,,,,,,,,,,,,,,,,,,,,0,-0.16396608,0.0,Stimuli/H8sim0.png,Stimuli/H6sim0.png,None,None,None,f,0,0.3554101170739159,None,352.2256529580336,None,,,,,3,2,2020_Nov_05_2129,configural_featural,2020.2.4,None,[3584 2240],
feat_haus,Designs/instructions_haus_1234.png,,,,,0,2,2,2,33,0,33,0,,,,,,,,,,,,,,,,,,,,,,,,,,,,,,,,,,,,,,,,,,,,,,,,,,,,,,,,,,0,-0.16396608,1.0,Stimuli/H6sim0.png,Stimuli/H6sim0.png,None,None,None,f,1,0.24914328299928457,None,353.30901841202285,None,,,,,3,2,2020_Nov_05_2129,configural_featural,2020.2.4,None,[3584 2240],
feat_haus,Designs/instructions_haus_1234.png,,,,,0,2,2,2,34,0,34,0,,,,,,,,,,,,,,,,,,,,,,,,,,,,,,,,,,,,,,,,,,,,,,,,,,,,,,,,,,1,-0.16396608,0.0,Stimuli/H7sim0.png,Stimuli/H6sim0.png,None,None,None,f,0,0.3082229970023036,None,354.27563841303345,None,,,,,3,2,2020_Nov_05_2129,configural_featural,2020.2.4,None,[3584 2240],
feat_haus,Designs/instructions_haus_1234.png,,,,,0,2,2,2,35,0,35,0,,,,,,,,,,,,,,,,,,,,,,,,,,,,,,,,,,,,,,,,,,,,,,,,,,,,,,,,,,0,0.16396608,0.0,Stimuli/H5sim0.png,Stimuli/H6sim0.png,None,None,None,f,0,0.36508258106186986,None,355.3256301280344,None,,,,,3,2,2020_Nov_05_2129,configural_featural,2020.2.4,None,[3584 2240],
feat_haus,Designs/instructions_haus_1234.png,,,,,0,2,2,2,36,0,36,0,,,,,,,,,,,,,,,,,,,,,,,,,,,,,,,,,,,,,,,,,,,,,,,,,,,,,,,,,,0,-0.16396608,0.0,Stimuli/H6sim0.png,Stimuli/H8sim0.png,None,None,None,f,0,0.23028643301222473,None,356.40903473703656,None,,,,,3,2,2020_Nov_05_2129,configural_featural,2020.2.4,None,[3584 2240],
feat_haus,Designs/instructions_haus_1234.png,,,,,0,2,2,2,37,0,37,0,,,,,,,,,,,,,,,,,,,,,,,,,,,,,,,,,,,,,,,,,,,,,,,,,,,,,,,,,,0,-0.16396608,1.0,Stimuli/H8sim0.png,Stimuli/H8sim0.png,None,None,None,f,1,0.006404065992683172,None,357.35905268008355,None,,,,,3,2,2020_Nov_05_2129,configural_featural,2020.2.4,None,[3584 2240],
feat_haus,Designs/instructions_haus_1234.png,,,,,0,2,2,2,38,0,38,0,,,,,,,,,,,,,,,,,,,,,,,,,,,,,,,,,,,,,,,,,,,,,,,,,,,,,,,,,,0,-0.16396608,0.0,Stimuli/H5sim0.png,Stimuli/H6sim0.png,None,None,None,f,0,0.40671353100333363,None,358.0924574660603,None,,,,,3,2,2020_Nov_05_2129,configural_featural,2020.2.4,None,[3584 2240],
feat_haus,Designs/instructions_haus_1234.png,,,,,0,2,2,2,39,0,39,0,,,,,,,,,,,,,,,,,,,,,,,,,,,,,,,,,,,,,,,,,,,,,,,,,,,,,,,,,,0,-0.16396608,1.0,Stimuli/H7sim0.png,Stimuli/H7sim0.png,None,None,None,f,1,0.7194041149923578,None,359.2446907410631,None,,,,,3,2,2020_Nov_05_2129,configural_featural,2020.2.4,None,[3584 2240],
feat_haus,Designs/instructions_haus_1234.png,,,,,0,2,2,2,40,0,40,0,,,,,,,,,,,,,,,,,,,,,,,,,,,,,,,,,,,,,,,,,,,,,,,,,,,,,,,,,,0,-0.16396608,1.0,Stimuli/H5sim0.png,Stimuli/H5sim0.png,None,None,None,f,1,0.510911648045294,None,360.6924635840114,None,,,,,3,2,2020_Nov_05_2129,configural_featural,2020.2.4,None,[3584 2240],
feat_haus,Designs/instructions_haus_1234.png,,,,,0,2,2,2,41,0,41,0,,,,,,,,,,,,,,,,,,,,,,,,,,,,,,,,,,,,,,,,,,,,,,,,,,,,,,,,,,0,-0.16396608,0.0,Stimuli/H5sim0.png,Stimuli/H7sim0.png,None,None,None,f,0,0.4231861389707774,None,361.9257072650362,None,,,,,3,2,2020_Nov_05_2129,configural_featural,2020.2.4,None,[3584 2240],
feat_haus,Designs/instructions_haus_1234.png,,,,,0,2,2,2,42,0,42,0,,,,,,,,,,,,,,,,,,,,,,,,,,,,,,,,,,,,,,,,,,,,,,,,,,,,,,,,,,0,0.16396608,1.0,Stimuli/H6sim0.png,Stimuli/H6sim0.png,None,None,None,f,1,0.26186275004874915,None,363.0757228300208,None,,,,,3,2,2020_Nov_05_2129,configural_featural,2020.2.4,None,[3584 2240],
feat_haus,Designs/instructions_haus_1234.png,,,,,0,2,2,2,43,0,43,0,,,,,,,,,,,,,,,,,,,,,,,,,,,,,,,,,,,,,,,,,,,,,,,,,,,,,,,,,,0,0.16396608,1.0,Stimuli/H7sim0.png,Stimuli/H7sim0.png,None,None,None,f,1,0.8353218219708651,None,364.07572389009874,None,,,,,3,2,2020_Nov_05_2129,configural_featural,2020.2.4,None,[3584 2240],
feat_haus,Designs/instructions_haus_1234.png,,,,,0,2,2,2,44,0,44,0,,,,,,,,,,,,,,,,,,,,,,,,,,,,,,,,,,,,,,,,,,,,,,,,,,,,,,,,,,0,0.16396608,1.0,Stimuli/H5sim0.png,Stimuli/H5sim0.png,None,None,None,f,1,0.4469843120314181,None,365.64479714108165,None,,,,,3,2,2020_Nov_05_2129,configural_featural,2020.2.4,None,[3584 2240],
feat_haus,Designs/instructions_haus_1234.png,,,,,0,2,2,2,45,0,45,0,,,,,,,,,,,,,,,,,,,,,,,,,,,,,,,,,,,,,,,,,,,,,,,,,,,,,,,,,,0,0.16396608,0.0,Stimuli/H5sim0.png,Stimuli/H8sim0.png,None,None,None,f,0,0.4960477910935879,None,366.80912084004376,None,,,,,3,2,2020_Nov_05_2129,configural_featural,2020.2.4,None,[3584 2240],
feat_haus,Designs/instructions_haus_1234.png,,,,,0,2,2,2,46,0,46,0,,,,,,,,,,,,,,,,,,,,,,,,,,,,,,,,,,,,,,,,,,,,,,,,,,,,,,,,,,0,-0.16396608,0.0,Stimuli/H5sim0.png,Stimuli/H8sim0.png,None,None,None,f,0,0.41130584198981524,None,368.0282156340545,None,,,,,3,2,2020_Nov_05_2129,configural_featural,2020.2.4,None,[3584 2240],
feat_haus,Designs/instructions_haus_1234.png,,,,,0,2,2,2,47,0,47,0,,,,,,,,,,,,,,,,,,,,,,,,,,,,,,,,,,,,,,,,,,,,,,,,,,,,,,,,,,0,0.16396608,0.0,Stimuli/H7sim0.png,Stimuli/H6sim0.png,None,None,None,f,0,0.14803531800862402,None,369.15902973606717,None,,,,,3,2,2020_Nov_05_2129,configural_featural,2020.2.4,None,[3584 2240],
feat_face,Designs/instructions_face_1234.png,,,,,0,3,3,3,0,0,0,0,,,,,,,,,,,,,,,,,,,,,,,,,,,,,,,,,,,,,,,,,,,,,,,,,,,,,,,,,,0,-0.16396608,0.0,Stimuli/f142.png,Stimuli/f15.png,None,None,None,f,0,0.33361838199198246,None,378.1925145420246,None,,,,,3,2,2020_Nov_05_2129,configural_featural,2020.2.4,None,[3584 2240],
feat_face,Designs/instructions_face_1234.png,,,,,0,3,3,3,1,0,1,0,,,,,,,,,,,,,,,,,,,,,,,,,,,,,,,,,,,,,,,,,,,,,,,,,,,,,,,,,,0,-0.16396608,1.0,Stimuli/f142.png,Stimuli/f142.png,None,None,None,f,1,0.5755134170176461,None,379.26175389206037,None,,,,,3,2,2020_Nov_05_2129,configural_featural,2020.2.4,None,[3584 2240],
feat_face,Designs/instructions_face_1234.png,,,,,0,3,3,3,2,0,2,0,,,,,,,,,,,,,,,,,,,,,,,,,,,,,,,,,,,,,,,,,,,,,,,,,,,,,,,,,,0,0.16396608,1.0,Stimuli/f24.png,Stimuli/f24.png,None,None,None,f,1,0.0851967689814046,None,380.55906097602565,None,,,,,3,2,2020_Nov_05_2129,configural_featural,2020.2.4,None,[3584 2240],
feat_face,Designs/instructions_face_1234.png,,,,,0,3,3,3,3,0,3,0,,,,,,,,,,,,,,,,,,,,,,,,,,,,,,,,,,,,,,,,,,,,,,,,,,,,,,,,,,1,-0.16396608,0.0,Stimuli/f142.png,Stimuli/f24.png,None,None,None,f,0,0.22600176697596908,None,381.3925969650736,None,,,,,3,2,2020_Nov_05_2129,configural_featural,2020.2.4,None,[3584 2240],
feat_face,Designs/instructions_face_1234.png,,,,,0,3,3,3,4,0,4,0,,,,,,,,,,,,,,,,,,,,,,,,,,,,,,,,,,,,,,,,,,,,,,,,,,,,,,,,,,1,0.16396608,1.0,Stimuli/f15.png,Stimuli/f15.png,None,None,None,f,1,0.09425029694102705,None,382.34260424308013,None,,,,,3,2,2020_Nov_05_2129,configural_featural,2020.2.4,None,[3584 2240],
feat_face,Designs/instructions_face_1234.png,,,,,0,3,3,3,5,0,5,0,,,,,,,,,,,,,,,,,,,,,,,,,,,,,,,,,,,,,,,,,,,,,,,,,,,,,,,,,,0,-0.16396608,0.0,Stimuli/f24.png,Stimuli/f142.png,None,None,None,f,0,0.28794798406306654,None,383.1759719240945,None,,,,,3,2,2020_Nov_05_2129,configural_featural,2020.2.4,None,[3584 2240],
feat_face,Designs/instructions_face_1234.png,,,,,0,3,3,3,6,0,6,0,,,,,,,,,,,,,,,,,,,,,,,,,,,,,,,,,,,,,,,,,,,,,,,,,,,,,,,,,,0,-0.16396608,0.0,Stimuli/f15.png,Stimuli/f24.png,None,None,None,f,0,0.2456934639485553,None,384.209234473994,None,,,,,3,2,2020_Nov_05_2129,configural_featural,2020.2.4,None,[3584 2240],
feat_face,Designs/instructions_face_1234.png,,,,,0,3,3,3,7,0,7,0,,,,,,,,,,,,,,,,,,,,,,,,,,,,,,,,,,,,,,,,,,,,,,,,,,,,,,,,,,0,0.16396608,0.0,Stimuli/f15.png,Stimuli/f142.png,None,None,None,f,0,1.1748110830085352,None,385.1759432890685,None,,,,,3,2,2020_Nov_05_2129,configural_featural,2020.2.4,None,[3584 2240],
,,,,,,,,,,,,,,,,,,,,,,,,,,,,,,,,,,,,,,,,,,,,,,,,,,,,,,,,,,,,,,,,,,,,,,,0,0.16396608,1.0,Stimuli/f131.png,Stimuli/f131.png,None,None,None,,,,,,,,,,,,,,,,,,
