Block_type,instruction_text,blocks.thisRepN,blocks.thisTrialN,blocks.thisN,blocks.thisIndex,trials.thisRepN,trials.thisTrialN,trials.thisN,trials.thisIndex,X Scale,Y Scale,fix_switches,side,trial_type1S0D,target,probe,key_resp_3.keys,key_resp_4.keys,key_resp_5.keys,key_resp.keys,key_resp.corr,key_resp.rt,key_resp_6.keys,key_resp_6.started,key_resp_6.stopped,participant,design,position,date,expName,psychopyVersion,frameRate,
conf_face,Press S for same or D for different faces. Press <SPACE> to continue.,0,0,0,0,0,0,0,0,0.05,0.05,0,0.17295000000000002,0.0,Stimuli/eumu.png,Stimuli/eomu.png,None,None,None,s,0,0.3754531279555522,None,16.50927377701737,None,code,1,2,2020_Oct_25_1803,configural_featural,2020.2.4,None,
conf_face,Press S for same or D for different faces. Press <SPACE> to continue.,0,0,0,0,1,0,1,0,,,0,-0.17295000000000002,0.0,Stimuli/eumu.png,Stimuli/eomu.png,None,None,None,s,0,0.15512117999605834,None,17.60923612402985,None,code,1,2,2020_Oct_25_1803,configural_featural,2020.2.4,None,
conf_face,Press S for same or D for different faces. Press <SPACE> to continue.,0,0,0,0,2,0,2,0,,,0,0.17295000000000002,0.0,Stimuli/eumu.png,Stimuli/edmd.png,None,None,None,s,0,0.16762020799797028,None,18.492443513998296,None,code,1,2,2020_Oct_25_1803,configural_featural,2020.2.4,None,
conf_face,Press S for same or D for different faces. Press <SPACE> to continue.,0,0,0,0,3,0,3,0,,,0,0.17295000000000002,1.0,Stimuli/eimd.png,Stimuli/eimd.png,None,None,None,s,1,0.09708772302838042,None,19.392504165007267,None,code,1,2,2020_Oct_25_1803,configural_featural,2020.2.4,None,
conf_face,Press S for same or D for different faces. Press <SPACE> to continue.,0,0,0,0,4,0,4,0,,,0,-0.17295000000000002,1.0,Stimuli/eimd.png,Stimuli/eimd.png,None,None,None,s,1,0.022683664981741458,None,20.211612701998092,None,code,1,2,2020_Oct_25_1803,configural_featural,2020.2.4,None,
conf_face,Press S for same or D for different faces. Press <SPACE> to continue.,0,0,0,0,5,0,5,0,,,0,0.17295000000000002,1.0,Stimuli/edmd.png,Stimuli/edmd.png,None,None,None,s,1,0.076425842999015,None,20.95908102201065,None,code,1,2,2020_Oct_25_1803,configural_featural,2020.2.4,None,
conf_face,Press S for same or D for different faces. Press <SPACE> to continue.,0,0,0,0,6,0,6,0,,,0,-0.17295000000000002,1.0,Stimuli/eomu.png,Stimuli/eomu.png,None,None,None,s,1,0.07402991899289191,None,21.77794941799948,None,code,1,2,2020_Oct_25_1803,configural_featural,2020.2.4,None,
conf_face,Press S for same or D for different faces. Press <SPACE> to continue.,0,0,0,0,7,0,7,0,,,1,-0.17295000000000002,1.0,Stimuli/edmd.png,Stimuli/edmd.png,None,None,None,s,1,0.0020428940188139677,None,22.592657417000737,None,code,1,2,2020_Oct_25_1803,configural_featural,2020.2.4,None,
conf_face,Press S for same or D for different faces. Press <SPACE> to continue.,0,0,0,0,8,0,8,0,,,0,-0.17295000000000002,0.0,Stimuli/edmd.png,Stimuli/eomu.png,None,None,None,s,0,0.04262253100750968,None,23.3424963800353,None,code,1,2,2020_Oct_25_1803,configural_featural,2020.2.4,None,
conf_face,Press S for same or D for different faces. Press <SPACE> to continue.,0,0,0,0,9,0,9,0,,,0,-0.17295000000000002,0.0,Stimuli/eimd.png,Stimuli/eomu.png,None,None,None,s,0,0.9191793919890188,None,24.11154298100155,None,code,1,2,2020_Oct_25_1803,configural_featural,2020.2.4,None,
conf_face,Press S for same or D for different faces. Press <SPACE> to continue.,0,0,0,0,10,0,10,0,,,0,0.17295000000000002,0.0,Stimuli/edmd.png,Stimuli/eimd.png,None,None,None,s,0,0.0700829639681615,None,25.759398950031027,None,code,1,2,2020_Oct_25_1803,configural_featural,2020.2.4,None,
conf_face,Press S for same or D for different faces. Press <SPACE> to continue.,0,0,0,0,11,0,11,0,,,0,-0.17295000000000002,1.0,Stimuli/eumu.png,Stimuli/eumu.png,None,None,None,s,1,0.03902262501651421,None,26.575983091024682,None,code,1,2,2020_Oct_25_1803,configural_featural,2020.2.4,None,
conf_face,Press S for same or D for different faces. Press <SPACE> to continue.,0,0,0,0,12,0,12,0,,,0,-0.17295000000000002,1.0,Stimuli/eomu.png,Stimuli/eomu.png,None,None,None,s,1,0.3665617149672471,None,27.34266224503517,None,code,1,2,2020_Oct_25_1803,configural_featural,2020.2.4,None,
conf_face,Press S for same or D for different faces. Press <SPACE> to continue.,0,0,0,0,13,0,13,0,,,0,-0.17295000000000002,0.0,Stimuli/edmd.png,Stimuli/eimd.png,None,None,None,s,0,0.23816910496680066,None,28.442522366996855,None,code,1,2,2020_Oct_25_1803,configural_featural,2020.2.4,None,
conf_face,Press S for same or D for different faces. Press <SPACE> to continue.,0,0,0,0,14,0,14,0,,,1,-0.17295000000000002,1.0,Stimuli/edmd.png,Stimuli/edmd.png,None,None,None,s,1,0.1771642949897796,None,29.425430049013812,None,code,1,2,2020_Oct_25_1803,configural_featural,2020.2.4,None,
conf_face,Press S for same or D for different faces. Press <SPACE> to continue.,0,0,0,0,15,0,15,0,,,0,-0.17295000000000002,0.0,Stimuli/eumu.png,Stimuli/eimd.png,None,None,None,s,0,0.2738606199854985,None,30.325976812047884,None,code,1,2,2020_Oct_25_1803,configural_featural,2020.2.4,None,
conf_face,Press S for same or D for different faces. Press <SPACE> to continue.,0,0,0,0,16,0,16,0,,,1,0.17295000000000002,1.0,Stimuli/eomu.png,Stimuli/eomu.png,None,None,None,s,1,0.13933951500803232,None,31.326014654012397,None,code,1,2,2020_Oct_25_1803,configural_featural,2020.2.4,None,
conf_face,Press S for same or D for different faces. Press <SPACE> to continue.,0,0,0,0,17,0,17,0,,,0,-0.17295000000000002,0.0,Stimuli/eomu.png,Stimuli/eimd.png,None,None,None,s,0,0.11613653600215912,None,32.20930563204456,None,code,1,2,2020_Oct_25_1803,configural_featural,2020.2.4,None,
conf_face,Press S for same or D for different faces. Press <SPACE> to continue.,0,0,0,0,18,0,18,0,,,0,0.17295000000000002,0.0,Stimuli/edmd.png,Stimuli/eomu.png,None,None,None,s,0,0.2646536499960348,None,33.04272226302419,None,code,1,2,2020_Oct_25_1803,configural_featural,2020.2.4,None,
conf_face,Press S for same or D for different faces. Press <SPACE> to continue.,0,0,0,0,19,0,19,0,,,0,-0.17295000000000002,1.0,Stimuli/eimd.png,Stimuli/eimd.png,None,None,None,s,1,0.4065913829836063,None,34.026007495995145,None,code,1,2,2020_Oct_25_1803,configural_featural,2020.2.4,None,
conf_face,Press S for same or D for different faces. Press <SPACE> to continue.,0,0,0,0,20,0,20,0,,,0,0.17295000000000002,1.0,Stimuli/eumu.png,Stimuli/eumu.png,None,None,None,s,1,0.4172355930204503,None,35.175361144007184,None,code,1,2,2020_Oct_25_1803,configural_featural,2020.2.4,None,
conf_face,Press S for same or D for different faces. Press <SPACE> to continue.,0,0,0,0,21,0,21,0,,,0,0.17295000000000002,1.0,Stimuli/eimd.png,Stimuli/eimd.png,None,None,None,s,1,0.5317183699808083,None,36.30940206703963,None,code,1,2,2020_Oct_25_1803,configural_featural,2020.2.4,None,
conf_face,Press S for same or D for different faces. Press <SPACE> to continue.,0,0,0,0,22,0,22,0,,,0,-0.17295000000000002,0.0,Stimuli/edmd.png,Stimuli/eumu.png,None,None,None,s,0,0.38970505096949637,None,37.55923382204492,None,code,1,2,2020_Oct_25_1803,configural_featural,2020.2.4,None,
conf_face,Press S for same or D for different faces. Press <SPACE> to continue.,0,0,0,0,23,0,23,0,,,0,0.17295000000000002,0.0,Stimuli/eomu.png,Stimuli/eimd.png,None,None,None,s,0,0.4261032600188628,None,38.69268658501096,None,code,1,2,2020_Oct_25_1803,configural_featural,2020.2.4,None,
conf_face,Press S for same or D for different faces. Press <SPACE> to continue.,0,0,0,0,24,0,24,0,,,0,0.17295000000000002,1.0,Stimuli/eumu.png,Stimuli/eumu.png,None,None,None,s,1,0.09868184803053737,None,39.84227992902743,None,code,1,2,2020_Oct_25_1803,configural_featural,2020.2.4,None,
conf_face,Press S for same or D for different faces. Press <SPACE> to continue.,0,0,0,0,25,0,25,0,,,0,0.17295000000000002,1.0,Stimuli/eomu.png,Stimuli/eomu.png,None,None,None,s,1,0.41908499598503113,None,40.66187938203802,None,code,1,2,2020_Oct_25_1803,configural_featural,2020.2.4,None,
conf_face,Press S for same or D for different faces. Press <SPACE> to continue.,0,0,0,0,26,0,26,0,,,0,-0.17295000000000002,0.0,Stimuli/eomu.png,Stimuli/eumu.png,None,None,None,s,0,0.9085150270257145,None,41.809173093002755,None,code,1,2,2020_Oct_25_1803,configural_featural,2020.2.4,None,
conf_face,Press S for same or D for different faces. Press <SPACE> to continue.,0,0,0,0,27,0,27,0,,,0,0.17295000000000002,0.0,Stimuli/edmd.png,Stimuli/eumu.png,None,None,None,s,0,0.3862518950481899,None,43.45936126902234,None,code,1,2,2020_Oct_25_1803,configural_featural,2020.2.4,None,
conf_face,Press S for same or D for different faces. Press <SPACE> to continue.,0,0,0,0,28,0,28,0,,,0,-0.17295000000000002,0.0,Stimuli/eumu.png,Stimuli/edmd.png,None,None,None,s,0,0.543313300004229,None,44.57606734201545,None,code,1,2,2020_Oct_25_1803,configural_featural,2020.2.4,None,
conf_face,Press S for same or D for different faces. Press <SPACE> to continue.,0,0,0,0,29,0,29,0,,,0,0.17295000000000002,1.0,Stimuli/edmd.png,Stimuli/edmd.png,None,None,None,s,1,0.42158668499905616,None,45.842736737045925,None,code,1,2,2020_Oct_25_1803,configural_featural,2020.2.4,None,
conf_face,Press S for same or D for different faces. Press <SPACE> to continue.,0,0,0,0,30,0,30,0,,,0,0.17295000000000002,0.0,Stimuli/eomu.png,Stimuli/edmd.png,None,None,None,s,0,0.46315483696525916,None,46.99288928200258,None,code,1,2,2020_Oct_25_1803,configural_featural,2020.2.4,None,
conf_face,Press S for same or D for different faces. Press <SPACE> to continue.,0,0,0,0,31,0,31,0,,,0,0.17295000000000002,1.0,Stimuli/eumu.png,Stimuli/eumu.png,None,None,None,s,1,0.9494574670097791,None,48.17860266700154,None,code,1,2,2020_Oct_25_1803,configural_featural,2020.2.4,None,
conf_face,Press S for same or D for different faces. Press <SPACE> to continue.,0,0,0,0,32,0,32,0,,,0,0.17295000000000002,0.0,Stimuli/eumu.png,Stimuli/eimd.png,None,None,None,s,0,1.199657023011241,None,49.85914988303557,None,code,1,2,2020_Oct_25_1803,configural_featural,2020.2.4,None,
conf_face,Press S for same or D for different faces. Press <SPACE> to continue.,0,0,0,0,33,0,33,0,,,0,-0.17295000000000002,0.0,Stimuli/eomu.png,Stimuli/edmd.png,None,None,None,s,0,1.7078388780355453,None,51.792789669008926,None,code,1,2,2020_Oct_25_1803,configural_featural,2020.2.4,None,
conf_face,Press S for same or D for different faces. Press <SPACE> to continue.,0,0,0,0,34,0,34,0,,,0,0.17295000000000002,1.0,Stimuli/edmd.png,Stimuli/edmd.png,None,None,None,s,1,1.2485790249775164,None,54.24491129204398,None,code,1,2,2020_Oct_25_1803,configural_featural,2020.2.4,None,
conf_face,Press S for same or D for different faces. Press <SPACE> to continue.,0,0,0,0,35,0,35,0,,,0,-0.17295000000000002,1.0,Stimuli/eumu.png,Stimuli/eumu.png,None,None,None,s,1,0.3665556750493124,None,56.24286319001112,None,code,1,2,2020_Oct_25_1803,configural_featural,2020.2.4,None,
conf_face,Press S for same or D for different faces. Press <SPACE> to continue.,0,0,0,0,36,0,36,0,,,0,0.17295000000000002,0.0,Stimuli/eimd.png,Stimuli/eomu.png,None,None,None,s,0,0.6018253400106914,None,57.32619898504345,None,code,1,2,2020_Oct_25_1803,configural_featural,2020.2.4,None,
conf_face,Press S for same or D for different faces. Press <SPACE> to continue.,0,0,0,0,37,0,37,0,,,0,-0.17295000000000002,0.0,Stimuli/eimd.png,Stimuli/eumu.png,None,None,None,s,0,0.9404260309529491,None,58.65952693403233,None,code,1,2,2020_Oct_25_1803,configural_featural,2020.2.4,None,
conf_face,Press S for same or D for different faces. Press <SPACE> to continue.,0,0,0,0,38,0,38,0,,,1,0.17295000000000002,0.0,Stimuli/eimd.png,Stimuli/edmd.png,None,None,None,s,0,0.49909159098751843,None,60.34300359204644,None,code,1,2,2020_Oct_25_1803,configural_featural,2020.2.4,None,
conf_face,Press S for same or D for different faces. Press <SPACE> to continue.,0,0,0,0,39,0,39,0,,,0,-0.17295000000000002,1.0,Stimuli/eimd.png,Stimuli/eimd.png,None,None,None,s,1,0.6747861680341884,None,61.559339297004044,None,code,1,2,2020_Oct_25_1803,configural_featural,2020.2.4,None,
conf_face,Press S for same or D for different faces. Press <SPACE> to continue.,0,0,0,0,40,0,40,0,,,0,-0.17295000000000002,1.0,Stimuli/eomu.png,Stimuli/eomu.png,None,None,None,s,1,0.11642124003265053,None,62.959493571019266,None,code,1,2,2020_Oct_25_1803,configural_featural,2020.2.4,None,
conf_face,Press S for same or D for different faces. Press <SPACE> to continue.,0,0,0,0,41,0,41,0,,,1,0.17295000000000002,1.0,Stimuli/eimd.png,Stimuli/eimd.png,None,None,None,s,1,2.3178334580152296,None,63.79305043601198,None,code,1,2,2020_Oct_25_1803,configural_featural,2020.2.4,None,
conf_face,Press S for same or D for different faces. Press <SPACE> to continue.,0,0,0,0,42,0,42,0,,,0,-0.17295000000000002,1.0,Stimuli/edmd.png,Stimuli/edmd.png,None,None,None,s,1,0.03345990303205326,None,66.84294188703643,None,code,1,2,2020_Oct_25_1803,configural_featural,2020.2.4,None,
conf_face,Press S for same or D for different faces. Press <SPACE> to continue.,0,0,0,0,43,0,43,0,,,1,0.17295000000000002,0.0,Stimuli/eimd.png,Stimuli/eumu.png,None,None,None,s,0,0.6929507940076292,None,67.60964815801708,None,code,1,2,2020_Oct_25_1803,configural_featural,2020.2.4,None,
conf_face,Press S for same or D for different faces. Press <SPACE> to continue.,0,0,0,0,44,0,44,0,,,0,0.17295000000000002,0.0,Stimuli/eomu.png,Stimuli/eumu.png,None,None,None,s,0,0.1823137379833497,None,69.02633504103869,None,code,1,2,2020_Oct_25_1803,configural_featural,2020.2.4,None,
conf_face,Press S for same or D for different faces. Press <SPACE> to continue.,0,0,0,0,45,0,45,0,,,0,0.17295000000000002,1.0,Stimuli/eomu.png,Stimuli/eomu.png,None,None,None,s,1,2.254326594993472,None,69.9429437420331,None,code,1,2,2020_Oct_25_1803,configural_featural,2020.2.4,None,
conf_face,Press S for same or D for different faces. Press <SPACE> to continue.,0,0,0,0,46,0,46,0,,,0,-0.17295000000000002,0.0,Stimuli/eimd.png,Stimuli/edmd.png,None,None,None,s,0,0.6091254470520653,None,72.92883650300791,None,code,1,2,2020_Oct_25_1803,configural_featural,2020.2.4,None,
conf_face,Press S for same or D for different faces. Press <SPACE> to continue.,0,0,0,0,47,0,47,0,,,0,-0.17295000000000002,1.0,Stimuli/eumu.png,Stimuli/eumu.png,None,None,None,s,1,0.614422979997471,None,74.26206443301635,None,code,1,2,2020_Oct_25_1803,configural_featural,2020.2.4,None,
conf_haus,Press S for same or D for different houses. Press <SPACE> to continue.,0,1,1,1,0,0,0,0,,,0,0.17295000000000002,0.0,Stimuli/H-8sim3.png,Stimuli/H-8sim0.png,None,None,None,s,0,0.024699631961993873,None,77.02623616502387,None,code,1,2,2020_Oct_25_1803,configural_featural,2020.2.4,None,
conf_haus,Press S for same or D for different houses. Press <SPACE> to continue.,0,1,1,1,1,0,1,0,,,0,-0.17295000000000002,0.0,Stimuli/H-8sim0.png,Stimuli/H-8sim3.png,None,None,None,d,1,0.5054490769980475,None,77.77653577603633,None,code,1,2,2020_Oct_25_1803,configural_featural,2020.2.4,None,
conf_haus,Press S for same or D for different houses. Press <SPACE> to continue.,0,1,1,1,2,0,2,0,,,0,0.17295000000000002,0.0,Stimuli/H-8sim2.png,Stimuli/H-8sim1.png,None,None,None,s,0,0.4787718500010669,None,79.00967601401499,None,code,1,2,2020_Oct_25_1803,configural_featural,2020.2.4,None,
conf_haus,Press S for same or D for different houses. Press <SPACE> to continue.,0,1,1,1,3,0,3,0,,,1,-0.17295000000000002,1.0,Stimuli/H-8sim3.png,Stimuli/H-8sim3.png,None,None,None,d,0,0.3847569610225037,None,80.20893642900046,None,code,1,2,2020_Oct_25_1803,configural_featural,2020.2.4,None,
conf_haus,Press S for same or D for different houses. Press <SPACE> to continue.,0,1,1,1,4,0,4,0,,,1,-0.17295000000000002,1.0,Stimuli/H-8sim1.png,Stimuli/H-8sim1.png,None,None,None,d,0,0.37850566796259955,None,81.30951047601411,None,code,1,2,2020_Oct_25_1803,configural_featural,2020.2.4,None,
conf_haus,Press S for same or D for different houses. Press <SPACE> to continue.,0,1,1,1,5,0,5,0,,,0,-0.17295000000000002,1.0,Stimuli/H-8sim0.png,Stimuli/H-8sim0.png,None,None,None,s,1,0.46190845302771777,None,82.41217795101693,None,code,1,2,2020_Oct_25_1803,configural_featural,2020.2.4,None,
conf_haus,Press S for same or D for different houses. Press <SPACE> to continue.,0,1,1,1,6,0,6,0,,,0,-0.17295000000000002,1.0,Stimuli/H-8sim2.png,Stimuli/H-8sim2.png,None,None,None,d,0,0.468436194001697,None,83.59548088500742,None,code,1,2,2020_Oct_25_1803,configural_featural,2020.2.4,None,
conf_haus,Press S for same or D for different houses. Press <SPACE> to continue.,0,1,1,1,7,0,7,0,,,0,0.17295000000000002,0.0,Stimuli/H-8sim3.png,Stimuli/H-8sim1.png,None,None,None,d,1,0.4671897380030714,None,84.7951073209988,None,code,1,2,2020_Oct_25_1803,configural_featural,2020.2.4,None,
conf_haus,Press S for same or D for different houses. Press <SPACE> to continue.,0,1,1,1,8,0,8,0,,,1,-0.17295000000000002,1.0,Stimuli/H-8sim1.png,Stimuli/H-8sim1.png,None,None,None,s,1,0.35778513096738607,None,86.00957736000419,None,code,1,2,2020_Oct_25_1803,configural_featural,2020.2.4,None,
conf_haus,Press S for same or D for different houses. Press <SPACE> to continue.,0,1,1,1,9,0,9,0,,,0,0.17295000000000002,0.0,Stimuli/H-8sim1.png,Stimuli/H-8sim0.png,None,None,None,s,0,1.155156231019646,None,87.09284193901112,None,code,1,2,2020_Oct_25_1803,configural_featural,2020.2.4,None,
conf_haus,Press S for same or D for different houses. Press <SPACE> to continue.,0,1,1,1,10,0,10,0,,,0,0.17295000000000002,1.0,Stimuli/H-8sim1.png,Stimuli/H-8sim1.png,None,None,None,d,0,0.4567178059951402,None,88.97613763203844,None,code,1,2,2020_Oct_25_1803,configural_featural,2020.2.4,None,
conf_haus,Press S for same or D for different houses. Press <SPACE> to continue.,0,1,1,1,11,0,11,0,,,0,0.17295000000000002,0.0,Stimuli/H-8sim3.png,Stimuli/H-8sim2.png,None,None,None,s,0,0.3738458229927346,None,90.15981265401933,None,code,1,2,2020_Oct_25_1803,configural_featural,2020.2.4,None,
conf_haus,Press S for same or D for different houses. Press <SPACE> to continue.,0,1,1,1,12,0,12,0,,,0,0.17295000000000002,1.0,Stimuli/H-8sim2.png,Stimuli/H-8sim2.png,None,None,None,s,1,0.26400271098827943,None,91.25975901301717,None,code,1,2,2020_Oct_25_1803,configural_featural,2020.2.4,None,
conf_haus,Press S for same or D for different houses. Press <SPACE> to continue.,0,1,1,1,13,0,13,0,,,0,0.17295000000000002,0.0,Stimuli/H-8sim0.png,Stimuli/H-8sim3.png,None,None,None,s,0,0.2616449139895849,None,92.24555052100914,None,code,1,2,2020_Oct_25_1803,configural_featural,2020.2.4,None,
conf_haus,Press S for same or D for different houses. Press <SPACE> to continue.,0,1,1,1,14,0,14,0,,,0,0.17295000000000002,1.0,Stimuli/H-8sim0.png,Stimuli/H-8sim0.png,None,None,None,s,1,0.4818150459905155,None,93.22820173500804,None,code,1,2,2020_Oct_25_1803,configural_featural,2020.2.4,None,
conf_haus,Press S for same or D for different houses. Press <SPACE> to continue.,0,1,1,1,15,0,15,0,,,0,-0.17295000000000002,0.0,Stimuli/H-8sim1.png,Stimuli/H-8sim3.png,None,None,None,s,0,0.2473464619833976,None,94.44537510501686,None,code,1,2,2020_Oct_25_1803,configural_featural,2020.2.4,None,
conf_haus,Press S for same or D for different houses. Press <SPACE> to continue.,0,1,1,1,16,0,16,0,,,0,0.17295000000000002,0.0,Stimuli/H-8sim1.png,Stimuli/H-8sim3.png,None,None,None,s,0,0.48875399300595745,None,95.4097581350361,None,code,1,2,2020_Oct_25_1803,configural_featural,2020.2.4,None,
conf_haus,Press S for same or D for different houses. Press <SPACE> to continue.,0,1,1,1,17,0,17,0,,,0,0.17295000000000002,1.0,Stimuli/H-8sim3.png,Stimuli/H-8sim3.png,None,None,None,s,1,0.29874076397391036,None,96.626171120035,None,code,1,2,2020_Oct_25_1803,configural_featural,2020.2.4,None,
conf_haus,Press S for same or D for different houses. Press <SPACE> to continue.,0,1,1,1,18,0,18,0,,,0,0.17295000000000002,1.0,Stimuli/H-8sim1.png,Stimuli/H-8sim1.png,None,None,None,s,1,0.5677702139946632,None,97.64294629904907,None,code,1,2,2020_Oct_25_1803,configural_featural,2020.2.4,None,
conf_haus,Press S for same or D for different houses. Press <SPACE> to continue.,0,1,1,1,19,0,19,0,,,0,0.17295000000000002,0.0,Stimuli/H-8sim2.png,Stimuli/H-8sim3.png,None,None,None,s,0,0.4754163700272329,None,98.94308302999707,None,code,1,2,2020_Oct_25_1803,configural_featural,2020.2.4,None,
conf_haus,Press S for same or D for different houses. Press <SPACE> to continue.,0,1,1,1,20,0,20,0,,,0,-0.17295000000000002,0.0,Stimuli/H-8sim1.png,Stimuli/H-8sim0.png,None,None,None,s,0,0.14769415999762714,None,100.14560696703847,None,code,1,2,2020_Oct_25_1803,configural_featural,2020.2.4,None,
conf_haus,Press S for same or D for different houses. Press <SPACE> to continue.,0,1,1,1,21,0,21,0,,,0,-0.17295000000000002,1.0,Stimuli/H-8sim2.png,Stimuli/H-8sim2.png,None,None,None,s,1,0.22197810496436432,None,101.00991345499642,None,code,1,2,2020_Oct_25_1803,configural_featural,2020.2.4,None,
conf_haus,Press S for same or D for different houses. Press <SPACE> to continue.,0,1,1,1,22,0,22,0,,,0,0.17295000000000002,0.0,Stimuli/H-8sim0.png,Stimuli/H-8sim2.png,None,None,None,s,0,1.9723074490320869,None,101.95987893204438,None,code,1,2,2020_Oct_25_1803,configural_featural,2020.2.4,None,
conf_haus,Press S for same or D for different houses. Press <SPACE> to continue.,0,1,1,1,23,0,23,0,,,0,0.17295000000000002,1.0,Stimuli/H-8sim3.png,Stimuli/H-8sim3.png,None,None,None,d,0,0.2193395639769733,None,104.66229860903695,None,code,1,2,2020_Oct_25_1803,configural_featural,2020.2.4,None,
conf_haus,Press S for same or D for different houses. Press <SPACE> to continue.,0,1,1,1,24,0,24,0,,,0,0.17295000000000002,1.0,Stimuli/H-8sim2.png,Stimuli/H-8sim2.png,None,None,None,d,0,0.35073538101278245,None,105.6099303200026,None,code,1,2,2020_Oct_25_1803,configural_featural,2020.2.4,None,
conf_haus,Press S for same or D for different houses. Press <SPACE> to continue.,0,1,1,1,25,0,25,0,,,0,-0.17295000000000002,1.0,Stimuli/H-8sim3.png,Stimuli/H-8sim3.png,None,None,None,s,1,0.5236058619921096,None,106.69311842799652,None,code,1,2,2020_Oct_25_1803,configural_featural,2020.2.4,None,
conf_haus,Press S for same or D for different houses. Press <SPACE> to continue.,0,1,1,1,26,0,26,0,,,0,-0.17295000000000002,0.0,Stimuli/H-8sim3.png,Stimuli/H-8sim2.png,None,None,None,s,0,0.4487648890353739,None,107.94325462600682,None,code,1,2,2020_Oct_25_1803,configural_featural,2020.2.4,None,
conf_haus,Press S for same or D for different houses. Press <SPACE> to continue.,0,1,1,1,27,0,27,0,,,0,-0.17295000000000002,1.0,Stimuli/H-8sim0.png,Stimuli/H-8sim0.png,None,None,None,d,0,0.25687207700684667,None,109.1098879580386,None,code,1,2,2020_Oct_25_1803,configural_featural,2020.2.4,None,
conf_haus,Press S for same or D for different houses. Press <SPACE> to continue.,0,1,1,1,28,0,28,0,,,1,0.17295000000000002,0.0,Stimuli/H-8sim1.png,Stimuli/H-8sim2.png,None,None,None,s,0,2.0696331809740514,None,110.09320992004359,None,code,1,2,2020_Oct_25_1803,configural_featural,2020.2.4,None,
conf_haus,Press S for same or D for different houses. Press <SPACE> to continue.,0,1,1,1,29,0,29,0,,,0,-0.17295000000000002,0.0,Stimuli/H-8sim3.png,Stimuli/H-8sim1.png,None,None,None,s,0,0.14565756096271798,None,112.89334042003611,None,code,1,2,2020_Oct_25_1803,configural_featural,2020.2.4,None,
conf_haus,Press S for same or D for different houses. Press <SPACE> to continue.,0,1,1,1,30,0,30,0,,,0,0.17295000000000002,1.0,Stimuli/H-8sim0.png,Stimuli/H-8sim0.png,None,None,None,d,0,0.13691906799795106,None,113.76016037299996,None,code,1,2,2020_Oct_25_1803,configural_featural,2020.2.4,None,
conf_haus,Press S for same or D for different houses. Press <SPACE> to continue.,0,1,1,1,31,0,31,0,,,0,-0.17295000000000002,0.0,Stimuli/H-8sim3.png,Stimuli/H-8sim0.png,None,None,None,d,1,0.7668105440097861,None,114.62896697601536,None,code,1,2,2020_Oct_25_1803,configural_featural,2020.2.4,None,
conf_haus,Press S for same or D for different houses. Press <SPACE> to continue.,0,1,1,1,32,0,32,0,,,0,-0.17295000000000002,1.0,Stimuli/H-8sim0.png,Stimuli/H-8sim0.png,None,None,None,s,1,0.2553003369830549,None,116.12665500002913,None,code,1,2,2020_Oct_25_1803,configural_featural,2020.2.4,None,
conf_haus,Press S for same or D for different houses. Press <SPACE> to continue.,0,1,1,1,33,0,33,0,,,0,0.17295000000000002,1.0,Stimuli/H-8sim1.png,Stimuli/H-8sim1.png,None,None,None,s,1,0.28428715094923973,None,117.11007926100865,None,code,1,2,2020_Oct_25_1803,configural_featural,2020.2.4,None,
conf_haus,Press S for same or D for different houses. Press <SPACE> to continue.,0,1,1,1,34,0,34,0,,,0,-0.17295000000000002,0.0,Stimuli/H-8sim1.png,Stimuli/H-8sim2.png,None,None,None,s,0,0.7477694479748607,None,118.12890115904156,None,code,1,2,2020_Oct_25_1803,configural_featural,2020.2.4,None,
conf_haus,Press S for same or D for different houses. Press <SPACE> to continue.,0,1,1,1,35,0,35,0,,,0,0.17295000000000002,0.0,Stimuli/H-8sim0.png,Stimuli/H-8sim1.png,None,None,None,s,0,0.24780771700898185,None,119.59590423305053,None,code,1,2,2020_Oct_25_1803,configural_featural,2020.2.4,None,
conf_haus,Press S for same or D for different houses. Press <SPACE> to continue.,0,1,1,1,36,0,36,0,,,1,0.17295000000000002,1.0,Stimuli/H-8sim0.png,Stimuli/H-8sim0.png,None,None,None,s,1,0.4409322589635849,None,120.57882715802407,None,code,1,2,2020_Oct_25_1803,configural_featural,2020.2.4,None,
conf_haus,Press S for same or D for different houses. Press <SPACE> to continue.,0,1,1,1,37,0,37,0,,,0,-0.17295000000000002,0.0,Stimuli/H-8sim2.png,Stimuli/H-8sim0.png,None,None,None,s,0,0.7329603299731389,None,121.7458402600023,None,code,1,2,2020_Oct_25_1803,configural_featural,2020.2.4,None,
conf_haus,Press S for same or D for different houses. Press <SPACE> to continue.,0,1,1,1,38,0,38,0,,,0,0.17295000000000002,1.0,Stimuli/H-8sim3.png,Stimuli/H-8sim3.png,None,None,None,s,1,0.2763364149723202,None,123.2268683000002,None,code,1,2,2020_Oct_25_1803,configural_featural,2020.2.4,None,
conf_haus,Press S for same or D for different houses. Press <SPACE> to continue.,0,1,1,1,39,0,39,0,,,0,-0.17295000000000002,0.0,Stimuli/H-8sim2.png,Stimuli/H-8sim3.png,None,None,None,d,1,0.2550664599984884,None,124.22668781602988,None,code,1,2,2020_Oct_25_1803,configural_featural,2020.2.4,None,
conf_haus,Press S for same or D for different houses. Press <SPACE> to continue.,0,1,1,1,40,0,40,0,,,0,0.17295000000000002,0.0,Stimuli/H-8sim2.png,Stimuli/H-8sim0.png,None,None,None,d,1,0.4558139360160567,None,125.20995929901255,None,code,1,2,2020_Oct_25_1803,configural_featural,2020.2.4,None,
conf_haus,Press S for same or D for different houses. Press <SPACE> to continue.,0,1,1,1,41,0,41,0,,,0,-0.17295000000000002,1.0,Stimuli/H-8sim3.png,Stimuli/H-8sim3.png,None,None,None,d,0,0.4397931930143386,None,126.39347788499435,None,code,1,2,2020_Oct_25_1803,configural_featural,2020.2.4,None,
conf_haus,Press S for same or D for different houses. Press <SPACE> to continue.,0,1,1,1,42,0,42,0,,,0,-0.17295000000000002,0.0,Stimuli/H-8sim2.png,Stimuli/H-8sim1.png,None,None,None,s,0,0.49689673696411774,None,127.56016685900977,None,code,1,2,2020_Oct_25_1803,configural_featural,2020.2.4,None,
conf_haus,Press S for same or D for different houses. Press <SPACE> to continue.,0,1,1,1,43,0,43,0,,,0,-0.17295000000000002,1.0,Stimuli/H-8sim2.png,Stimuli/H-8sim2.png,None,None,None,s,1,0.5218114479794167,None,128.77680553204846,None,code,1,2,2020_Oct_25_1803,configural_featural,2020.2.4,None,
conf_haus,Press S for same or D for different houses. Press <SPACE> to continue.,0,1,1,1,44,0,44,0,,,0,-0.17295000000000002,0.0,Stimuli/H-8sim0.png,Stimuli/H-8sim2.png,None,None,None,s,0,0.5515944020007737,None,130.02917150000576,None,code,1,2,2020_Oct_25_1803,configural_featural,2020.2.4,None,
conf_haus,Press S for same or D for different houses. Press <SPACE> to continue.,0,1,1,1,45,0,45,0,,,1,-0.17295000000000002,1.0,Stimuli/H-8sim1.png,Stimuli/H-8sim1.png,None,None,None,s,1,0.38667154900031164,None,131.32679578504758,None,code,1,2,2020_Oct_25_1803,configural_featural,2020.2.4,None,
conf_haus,Press S for same or D for different houses. Press <SPACE> to continue.,0,1,1,1,46,0,46,0,,,0,0.17295000000000002,1.0,Stimuli/H-8sim2.png,Stimuli/H-8sim2.png,None,None,None,d,0,0.43226424301974475,None,132.44334542303113,None,code,1,2,2020_Oct_25_1803,configural_featural,2020.2.4,None,
conf_haus,Press S for same or D for different houses. Press <SPACE> to continue.,0,1,1,1,47,0,47,0,,,0,-0.17295000000000002,0.0,Stimuli/H-8sim0.png,Stimuli/H-8sim1.png,None,None,None,d,1,0.47363373899133876,None,133.5935199300293,None,code,1,2,2020_Oct_25_1803,configural_featural,2020.2.4,None,
feat_face,Press S for same or D for different faces. Press <SPACE> to continue.,0,2,2,2,0,0,0,0,,,0,-0.17295000000000002,1.0,Stimuli/f142.png,Stimuli/f142.png,None,None,None,s,1,0.07876824401319027,None,137.21254199399846,None,code,1,2,2020_Oct_25_1803,configural_featural,2020.2.4,None,
feat_face,Press S for same or D for different faces. Press <SPACE> to continue.,0,2,2,2,1,0,1,0,,,0,0.17295000000000002,1.0,Stimuli/f15.png,Stimuli/f15.png,None,None,None,d,0,0.14057797798886895,None,138.01255454600323,None,code,1,2,2020_Oct_25_1803,configural_featural,2020.2.4,None,
feat_face,Press S for same or D for different faces. Press <SPACE> to continue.,0,2,2,2,2,0,2,0,,,0,0.17295000000000002,0.0,Stimuli/f142.png,Stimuli/f24.png,None,None,None,d,1,0.13730107102310285,None,138.87672240904067,None,code,1,2,2020_Oct_25_1803,configural_featural,2020.2.4,None,
feat_face,Press S for same or D for different faces. Press <SPACE> to continue.,0,2,2,2,3,0,3,0,,,0,0.17295000000000002,0.0,Stimuli/f24.png,Stimuli/f142.png,None,None,None,d,1,0.07047636900097132,None,139.7625205850345,None,code,1,2,2020_Oct_25_1803,configural_featural,2020.2.4,None,
feat_face,Press S for same or D for different faces. Press <SPACE> to continue.,0,2,2,2,4,0,4,0,,,0,0.17295000000000002,1.0,Stimuli/f24.png,Stimuli/f24.png,None,None,None,d,0,0.6551174340420403,None,140.5603039340349,None,code,1,2,2020_Oct_25_1803,configural_featural,2020.2.4,None,
feat_face,Press S for same or D for different faces. Press <SPACE> to continue.,0,2,2,2,5,0,5,0,,,0,-0.17295000000000002,0.0,Stimuli/f15.png,Stimuli/f24.png,None,None,None,s,0,0.41137944301590323,None,141.94605358404806,None,code,1,2,2020_Oct_25_1803,configural_featural,2020.2.4,None,
feat_face,Press S for same or D for different faces. Press <SPACE> to continue.,0,2,2,2,6,0,6,0,,,0,-0.17295000000000002,0.0,Stimuli/f131.png,Stimuli/f15.png,None,None,None,s,0,0.4753641019924544,None,143.0768991369987,None,code,1,2,2020_Oct_25_1803,configural_featural,2020.2.4,None,
feat_face,Press S for same or D for different faces. Press <SPACE> to continue.,0,2,2,2,7,0,7,0,,,0,-0.17295000000000002,0.0,Stimuli/f15.png,Stimuli/f142.png,None,None,None,d,1,0.0648011610028334,None,144.27669652900659,None,code,1,2,2020_Oct_25_1803,configural_featural,2020.2.4,None,
feat_face,Press S for same or D for different faces. Press <SPACE> to continue.,0,2,2,2,8,0,8,0,,,0,0.17295000000000002,1.0,Stimuli/f131.png,Stimuli/f131.png,None,None,None,d,0,0.21625967597356066,None,145.06024552101735,None,code,1,2,2020_Oct_25_1803,configural_featural,2020.2.4,None,
feat_face,Press S for same or D for different faces. Press <SPACE> to continue.,0,2,2,2,9,0,9,0,,,1,0.17295000000000002,1.0,Stimuli/f142.png,Stimuli/f142.png,None,None,None,s,1,0.13830912194680423,None,145.99358400900383,None,code,1,2,2020_Oct_25_1803,configural_featural,2020.2.4,None,
feat_face,Press S for same or D for different faces. Press <SPACE> to continue.,0,2,2,2,10,0,10,0,,,0,0.17295000000000002,1.0,Stimuli/f15.png,Stimuli/f15.png,None,None,None,d,0,0.11173183296341449,None,146.8602225270006,None,code,1,2,2020_Oct_25_1803,configural_featural,2020.2.4,None,
feat_face,Press S for same or D for different faces. Press <SPACE> to continue.,0,2,2,2,11,0,11,0,,,0,-0.17295000000000002,0.0,Stimuli/f24.png,Stimuli/f15.png,None,None,None,s,0,0.06205027300165966,None,147.69590223999694,None,code,1,2,2020_Oct_25_1803,configural_featural,2020.2.4,None,
feat_face,Press S for same or D for different faces. Press <SPACE> to continue.,0,2,2,2,12,0,12,0,,,0,0.17295000000000002,0.0,Stimuli/f131.png,Stimuli/f24.png,None,None,None,d,1,0.0607266669976525,None,148.47653332003392,None,code,1,2,2020_Oct_25_1803,configural_featural,2020.2.4,None,
feat_face,Press S for same or D for different faces. Press <SPACE> to continue.,0,2,2,2,13,0,13,0,,,0,0.17295000000000002,0.0,Stimuli/f142.png,Stimuli/f131.png,None,None,None,s,0,0.10236702003749087,None,149.262843272998,None,code,1,2,2020_Oct_25_1803,configural_featural,2020.2.4,None,
feat_face,Press S for same or D for different faces. Press <SPACE> to continue.,0,2,2,2,14,0,14,0,,,1,-0.17295000000000002,1.0,Stimuli/f131.png,Stimuli/f131.png,None,None,None,d,0,0.09682806098135188,None,150.11030623404076,None,code,1,2,2020_Oct_25_1803,configural_featural,2020.2.4,None,
feat_face,Press S for same or D for different faces. Press <SPACE> to continue.,0,2,2,2,15,0,15,0,,,0,-0.17295000000000002,1.0,Stimuli/f24.png,Stimuli/f24.png,None,None,None,d,0,0.22651855897856876,None,150.92675262701232,None,code,1,2,2020_Oct_25_1803,configural_featural,2020.2.4,None,
feat_face,Press S for same or D for different faces. Press <SPACE> to continue.,0,2,2,2,16,0,16,0,,,0,0.17295000000000002,1.0,Stimuli/f131.png,Stimuli/f131.png,None,None,None,d,0,0.2214825740084052,None,151.8768472300144,None,code,1,2,2020_Oct_25_1803,configural_featural,2020.2.4,None,
feat_face,Press S for same or D for different faces. Press <SPACE> to continue.,0,2,2,2,17,0,17,0,,,0,0.17295000000000002,0.0,Stimuli/f24.png,Stimuli/f15.png,None,None,None,s,0,0.09584581200033426,None,152.8268492470379,None,code,1,2,2020_Oct_25_1803,configural_featural,2020.2.4,None,
feat_face,Press S for same or D for different faces. Press <SPACE> to continue.,0,2,2,2,18,0,18,0,,,0,-0.17295000000000002,1.0,Stimuli/f15.png,Stimuli/f15.png,None,None,None,d,0,0.2135163769708015,None,153.6434852600214,None,code,1,2,2020_Oct_25_1803,configural_featural,2020.2.4,None,
feat_face,Press S for same or D for different faces. Press <SPACE> to continue.,0,2,2,2,19,0,19,0,,,0,0.17295000000000002,1.0,Stimuli/f142.png,Stimuli/f142.png,None,None,None,s,1,0.044536824978422374,None,154.57699580100598,None,code,1,2,2020_Oct_25_1803,configural_featural,2020.2.4,None,
feat_face,Press S for same or D for different faces. Press <SPACE> to continue.,0,2,2,2,20,0,20,0,,,0,0.17295000000000002,0.0,Stimuli/f24.png,Stimuli/f131.png,None,None,None,s,0,0.006496593996416777,None,155.34304030204657,None,code,1,2,2020_Oct_25_1803,configural_featural,2020.2.4,None,
feat_face,Press S for same or D for different faces. Press <SPACE> to continue.,0,2,2,2,21,0,21,0,,,1,-0.17295000000000002,1.0,Stimuli/f24.png,Stimuli/f24.png,None,None,None,d,0,0.07534785900497809,None,156.09375126304803,None,code,1,2,2020_Oct_25_1803,configural_featural,2020.2.4,None,
feat_face,Press S for same or D for different faces. Press <SPACE> to continue.,0,2,2,2,22,0,22,0,,,0,0.17295000000000002,0.0,Stimuli/f15.png,Stimuli/f24.png,None,None,None,s,0,0.039992091013118625,None,156.91030839300947,None,code,1,2,2020_Oct_25_1803,configural_featural,2020.2.4,None,
feat_face,Press S for same or D for different faces. Press <SPACE> to continue.,0,2,2,2,23,0,23,0,,,0,-0.17295000000000002,0.0,Stimuli/f142.png,Stimuli/f15.png,None,None,None,d,1,0.07269596203695983,None,157.67706846701913,None,code,1,2,2020_Oct_25_1803,configural_featural,2020.2.4,None,
feat_face,Press S for same or D for different faces. Press <SPACE> to continue.,0,2,2,2,24,0,24,0,,,1,-0.17295000000000002,1.0,Stimuli/f131.png,Stimuli/f131.png,None,None,None,s,1,0.07912737695733085,None,158.495919116016,None,code,1,2,2020_Oct_25_1803,configural_featural,2020.2.4,None,
feat_face,Press S for same or D for different faces. Press <SPACE> to continue.,0,2,2,2,25,0,25,0,,,0,0.17295000000000002,0.0,Stimuli/f15.png,Stimuli/f142.png,None,None,None,d,1,0.15857863001292571,None,159.29361510201124,None,code,1,2,2020_Oct_25_1803,configural_featural,2020.2.4,None,
feat_face,Press S for same or D for different faces. Press <SPACE> to continue.,0,2,2,2,26,0,26,0,,,0,-0.17295000000000002,1.0,Stimuli/f15.png,Stimuli/f15.png,None,None,None,s,1,0.1499744089669548,None,160.2104812420439,None,code,1,2,2020_Oct_25_1803,configural_featural,2020.2.4,None,
feat_face,Press S for same or D for different faces. Press <SPACE> to continue.,0,2,2,2,27,0,27,0,,,0,0.17295000000000002,0.0,Stimuli/f131.png,Stimuli/f142.png,None,None,None,s,0,0.026492236007470638,None,161.0793480570428,None,code,1,2,2020_Oct_25_1803,configural_featural,2020.2.4,None,
feat_face,Press S for same or D for different faces. Press <SPACE> to continue.,0,2,2,2,28,0,28,0,,,0,-0.17295000000000002,1.0,Stimuli/f142.png,Stimuli/f142.png,None,None,None,s,1,0.07614618696970865,None,161.82947439700365,None,code,1,2,2020_Oct_25_1803,configural_featural,2020.2.4,None,
feat_face,Press S for same or D for different faces. Press <SPACE> to continue.,0,2,2,2,29,0,29,0,,,0,0.17295000000000002,0.0,Stimuli/f131.png,Stimuli/f15.png,None,None,None,d,1,0.005934942048043013,None,162.64377226802753,None,code,1,2,2020_Oct_25_1803,configural_featural,2020.2.4,None,
feat_face,Press S for same or D for different faces. Press <SPACE> to continue.,0,2,2,2,30,0,30,0,,,0,-0.17295000000000002,0.0,Stimuli/f142.png,Stimuli/f131.png,None,None,None,d,1,0.25636081502307206,None,163.3796305200085,None,code,1,2,2020_Oct_25_1803,configural_featural,2020.2.4,None,
feat_face,Press S for same or D for different faces. Press <SPACE> to continue.,0,2,2,2,31,0,31,0,,,0,0.17295000000000002,0.0,Stimuli/f142.png,Stimuli/f15.png,None,None,None,d,1,0.13793331000488251,None,164.36259965604404,None,code,1,2,2020_Oct_25_1803,configural_featural,2020.2.4,None,
feat_face,Press S for same or D for different faces. Press <SPACE> to continue.,0,2,2,2,32,0,32,0,,,0,-0.17295000000000002,0.0,Stimuli/f15.png,Stimuli/f131.png,None,None,None,d,1,0.3497071140445769,None,165.22886577504687,None,code,1,2,2020_Oct_25_1803,configural_featural,2020.2.4,None,
feat_face,Press S for same or D for different faces. Press <SPACE> to continue.,0,2,2,2,33,0,33,0,,,1,-0.17295000000000002,1.0,Stimuli/f142.png,Stimuli/f142.png,None,None,None,d,0,0.31816562195308506,None,166.30988866003463,None,code,1,2,2020_Oct_25_1803,configural_featural,2020.2.4,None,
feat_face,Press S for same or D for different faces. Press <SPACE> to continue.,0,2,2,2,34,0,34,0,,,0,0.17295000000000002,1.0,Stimuli/f24.png,Stimuli/f24.png,None,None,None,d,0,0.2567469589994289,None,167.34382861404447,None,code,1,2,2020_Oct_25_1803,configural_featural,2020.2.4,None,
feat_face,Press S for same or D for different faces. Press <SPACE> to continue.,0,2,2,2,35,0,35,0,,,0,0.17295000000000002,1.0,Stimuli/f131.png,Stimuli/f131.png,None,None,None,d,0,0.535610702005215,None,168.32710391801083,None,code,1,2,2020_Oct_25_1803,configural_featural,2020.2.4,None,
feat_face,Press S for same or D for different faces. Press <SPACE> to continue.,0,2,2,2,36,0,36,0,,,0,-0.17295000000000002,0.0,Stimuli/f24.png,Stimuli/f142.png,None,None,None,d,1,0.28154535201611,None,169.6128186370479,None,code,1,2,2020_Oct_25_1803,configural_featural,2020.2.4,None,
feat_face,Press S for same or D for different faces. Press <SPACE> to continue.,0,2,2,2,37,0,37,0,,,0,-0.17295000000000002,0.0,Stimuli/f131.png,Stimuli/f142.png,None,None,None,d,1,0.61403010901995,None,170.6462413010304,None,code,1,2,2020_Oct_25_1803,configural_featural,2020.2.4,None,
feat_face,Press S for same or D for different faces. Press <SPACE> to continue.,0,2,2,2,38,0,38,0,,,0,0.17295000000000002,1.0,Stimuli/f24.png,Stimuli/f24.png,None,None,None,d,0,0.30442488903645426,None,171.9771422840422,None,code,1,2,2020_Oct_25_1803,configural_featural,2020.2.4,None,
feat_face,Press S for same or D for different faces. Press <SPACE> to continue.,0,2,2,2,39,0,39,0,,,0,-0.17295000000000002,0.0,Stimuli/f131.png,Stimuli/f24.png,None,None,None,s,0,0.6213359469547868,None,173.01294355205027,None,code,1,2,2020_Oct_25_1803,configural_featural,2020.2.4,None,
feat_face,Press S for same or D for different faces. Press <SPACE> to continue.,0,2,2,2,40,0,40,0,,,1,0.17295000000000002,1.0,Stimuli/f15.png,Stimuli/f15.png,None,None,None,s,1,0.574373907991685,None,174.37697578803636,None,code,1,2,2020_Oct_25_1803,configural_featural,2020.2.4,None,
feat_face,Press S for same or D for different faces. Press <SPACE> to continue.,0,2,2,2,41,0,41,0,,,0,-0.17295000000000002,1.0,Stimuli/f131.png,Stimuli/f131.png,None,None,None,s,1,0.3503344560158439,None,175.67707940004766,None,code,1,2,2020_Oct_25_1803,configural_featural,2020.2.4,None,
feat_face,Press S for same or D for different faces. Press <SPACE> to continue.,0,2,2,2,42,0,42,0,,,0,-0.17295000000000002,0.0,Stimuli/f142.png,Stimuli/f24.png,None,None,None,s,0,0.32926384697202593,None,176.74392369604902,None,code,1,2,2020_Oct_25_1803,configural_featural,2020.2.4,None,
feat_face,Press S for same or D for different faces. Press <SPACE> to continue.,0,2,2,2,43,0,43,0,,,0,-0.17295000000000002,0.0,Stimuli/f24.png,Stimuli/f131.png,None,None,None,d,1,0.23624042799929157,None,177.7938523060293,None,code,1,2,2020_Oct_25_1803,configural_featural,2020.2.4,None,
feat_face,Press S for same or D for different faces. Press <SPACE> to continue.,0,2,2,2,44,0,44,0,,,0,-0.17295000000000002,1.0,Stimuli/f24.png,Stimuli/f24.png,None,None,None,s,1,0.46954945800825953,None,178.76053709501866,None,code,1,2,2020_Oct_25_1803,configural_featural,2020.2.4,None,
feat_face,Press S for same or D for different faces. Press <SPACE> to continue.,0,2,2,2,45,0,45,0,,,0,-0.17295000000000002,1.0,Stimuli/f15.png,Stimuli/f15.png,None,None,None,s,1,0.497678552987054,None,179.96007735905005,None,code,1,2,2020_Oct_25_1803,configural_featural,2020.2.4,None,
feat_face,Press S for same or D for different faces. Press <SPACE> to continue.,0,2,2,2,46,0,46,0,,,0,0.17295000000000002,0.0,Stimuli/f15.png,Stimuli/f131.png,None,None,None,s,0,0.37144885305315256,None,181.17714889603667,None,code,1,2,2020_Oct_25_1803,configural_featural,2020.2.4,None,
feat_face,Press S for same or D for different faces. Press <SPACE> to continue.,0,2,2,2,47,0,47,0,,,0,0.17295000000000002,1.0,Stimuli/f142.png,Stimuli/f142.png,None,None,None,d,0,0.2504639269900508,None,182.277240490017,None,code,1,2,2020_Oct_25_1803,configural_featural,2020.2.4,None,
feat_haus,Press S for same or D for different houses. Press <SPACE> to continue.,0,3,3,3,0,0,0,0,,,0,0.17295000000000002,1.0,Stimuli/H5sim0.png,Stimuli/H5sim0.png,None,None,None,d,0,0.06486820499412715,None,194.57991187099833,None,code,1,2,2020_Oct_25_1803,configural_featural,2020.2.4,None,
feat_haus,Press S for same or D for different houses. Press <SPACE> to continue.,0,3,3,3,1,0,1,0,,,0,-0.17295000000000002,0.0,Stimuli/H7sim0.png,Stimuli/H5sim0.png,None,None,None,s,0,0.372173861018382,None,195.3606183610391,None,code,1,2,2020_Oct_25_1803,configural_featural,2020.2.4,None,
feat_haus,Press S for same or D for different houses. Press <SPACE> to continue.,0,3,3,3,2,0,2,0,,,0,0.17295000000000002,1.0,Stimuli/H7sim0.png,Stimuli/H7sim0.png,None,None,None,s,1,0.4091080750222318,None,196.46043699904112,None,code,1,2,2020_Oct_25_1803,configural_featural,2020.2.4,None,
feat_haus,Press S for same or D for different houses. Press <SPACE> to continue.,0,3,3,3,3,0,3,0,,,0,0.17295000000000002,0.0,Stimuli/H7sim0.png,Stimuli/H5sim0.png,None,None,None,s,0,0.06433262897189707,None,197.5964955970412,None,code,1,2,2020_Oct_25_1803,configural_featural,2020.2.4,None,
,,,,,,,,,,,,0,0.17295000000000002,1.0,Stimuli/H8sim0.png,Stimuli/H8sim0.png,None,None,None,,,,,,,,,,,,,,
