X Scale,Y Scale,key_resp_10.keys,key_resp_10.rt,prePrac1Resp.keys,prePrac1Resp.corr,prePrac1Resp.rt,prePrac2_fixResp.keys,prePrac2_fixResp.corr,prePrac2_imgResp.keys,prePrac2_imgResp.corr,prePrac2_imgResp.rt,pfix_switches,Pside,ptrial_type1S0D,ptarget,pprobe,prac_resp.keys,prac_resp.corr,prac_resp.rt,prac_fix_resp.keys,prac_fix_resp.corr,pTrials_slow.thisRepN,pTrials_slow.thisTrialN,pTrials_slow.thisN,pTrials_slow.thisIndex,pTrials_slow.ran,participant,design,position,date,expName,psychopyVersion,OS,frameRate,xResolution,yResolution,prac_fix_resp.rt,prac_fix_resp_fast.keys,prac_fix_resp_fast.corr,prac_resp2.keys,prac_resp2.corr,prac_resp2.rt,pTrials_fast.thisRepN,pTrials_fast.thisTrialN,pTrials_fast.thisN,pTrials_fast.thisIndex,pTrials_fast.ran,prac_fix_resp_fast.rt,pTrials.thisRepN,pTrials.thisTrialN,pTrials.thisN,pTrials.thisIndex,pTrials.ran,repPracLoop.thisRepN,repPracLoop.thisTrialN,repPracLoop.thisN,repPracLoop.thisIndex,repPracLoop.ran,fix_switches,side,trial_type1S0D,target,probe,block_type,key_resp.keys,key_resp.corr,key_resp.rt,fix_resp.keys,fix_resp.corr,trials.thisRepN,trials.thisTrialN,trials.thisN,trials.thisIndex,trials.ran,fix_resp.rt,blocks.thisRepN,blocks.thisTrialN,blocks.thisN,blocks.thisIndex,blocks.ran,Block_type,instruction_text
0.047,0.0463,space,36.55463,f,0,12.14094,,0,f,1,3.2481,0,0.163380792,0,Stimuli/H7sim0.png,Stimuli/H7sim0.png,f,1,2.047625,,1,0,0,0,0,1,HR,1,2,2021-01-11_12h20.05.960,configural_featural,2020.2.4,MacIntel,60,1792,1120,,,,,,,,,,,,,,,,,,,,,,,,,,,,,,,,,,,,,,,,,,,,,,
,,,,,,,,,,,,1,0.163380792,1,Stimuli/H8sim0.png,Stimuli/H-8sim1.png,j,1,1.00711,space,1,1,0,1,0,1,HR,1,2,2021-01-11_12h20.05.960,configural_featural,2020.2.4,MacIntel,60,1792,1120,2.739735,,,,,,,,,,,,,,,,,,,,,,,,,,,,,,,,,,,,,,,,,,,,,
,,,,,,,,,,,,0,0.163380792,0,Stimuli/H8sim0.png,Stimuli/H8sim0.png,f,1,1.94904,,1,2,0,2,0,1,HR,1,2,2021-01-11_12h20.05.960,configural_featural,2020.2.4,MacIntel,60,1792,1120,,,,,,,,,,,,,,,,,,,,,,,,,,,,,,,,,,,,,,,,,,,,,,
,,,,,,,,,,,,0,0.163380792,1,Stimuli/H-8sim0.png,Stimuli/H5sim0.png,j,1,1.03529,space,0,3,0,3,0,1,HR,1,2,2021-01-11_12h20.05.960,configural_featural,2020.2.4,MacIntel,60,1792,1120,1.80139,,,,,,,,,,,,,,,,,,,,,,,,,,,,,,,,,,,,,,,,,,,,,
,,,,,,,,,,,,0,0.163380792,0,Stimuli/H-8sim1.png,Stimuli/H-8sim1.png,,,,,,,,,,,HR,1,2,2021-01-11_12h20.05.960,configural_featural,2020.2.4,MacIntel,60,1792,1120,,,1,j,0,2.0001,0,0,0,0,1,,,,,,,,,,,,,,,,,,,,,,,,,,,,,,,,,,,
,,,,,,,,,,,,0,0.163380792,1,Stimuli/H-8sim3.png,Stimuli/H7sim0.png,,,,,,,,,,,HR,1,2,2021-01-11_12h20.05.960,configural_featural,2020.2.4,MacIntel,60,1792,1120,,,1,j,1,4.372635,1,0,1,0,1,,,,,,,,,,,,,,,,,,,,,,,,,,,,,,,,,,,
,,,,,,,,,,,,1,0.163380792,0,Stimuli/H6sim0.png,Stimuli/H6sim0.png,,,,,,,,,,,HR,1,2,2021-01-11_12h20.05.960,configural_featural,2020.2.4,MacIntel,60,1792,1120,,space,1,f,1,3.45736,2,0,2,0,1,3.7504,,,,,,,,,,,,,,,,,,,,,,,,,,,,,,,,,,
,,,,,,,,,,,,0,0.163380792,1,Stimuli/H-8sim1.png,Stimuli/H7sim0.png,,,,,,,,,,,HR,1,2,2021-01-11_12h20.05.960,configural_featural,2020.2.4,MacIntel,60,1792,1120,,,1,j,1,2.570175,3,0,3,0,1,,,,,,,,,,,,,,,,,,,,,,,,,,,,,,,,,,,
,,,,,,,,,,,,,,,,,,,,,,,,,,,HR,1,2,2021-01-11_12h20.05.960,configural_featural,2020.2.4,MacIntel,60,1792,1120,,,,,,,,,,,,,0,0,0,0,1,,,,,,,,,,,,,,,,,,,,,,,,,,,,,
,,,,,,,,,,,,0,-0.163380792,0,Stimuli/f15.png,Stimuli/f15.png,f,1,3.13367,,1,0,0,0,0,1,HR,1,2,2021-01-11_12h20.05.960,configural_featural,2020.2.4,MacIntel,60,1792,1120,,,,,,,,,,,,,,,,,,,,,,,,,,,,,,,,,,,,,,,,,,,,,,
,,,,,,,,,,,,0,-0.163380792,1,Stimuli/f131.png,Stimuli/eimd.png,j,1,1.51639,,1,1,0,1,0,1,HR,1,2,2021-01-11_12h20.05.960,configural_featural,2020.2.4,MacIntel,60,1792,1120,,,,,,,,,,,,,,,,,,,,,,,,,,,,,,,,,,,,,,,,,,,,,,
,,,,,,,,,,,,1,-0.163380792,0,Stimuli/eomu.png,Stimuli/eomu.png,f,1,2.01729,space,1,2,0,2,0,1,HR,1,2,2021-01-11_12h20.05.960,configural_featural,2020.2.4,MacIntel,60,1792,1120,2.65032,,,,,,,,,,,,,,,,,,,,,,,,,,,,,,,,,,,,,,,,,,,,,
,,,,,,,,,,,,0,-0.163380792,1,Stimuli/f24.png,Stimuli/eumu.png,j,1,2.671315,space,0,3,0,3,0,1,HR,1,2,2021-01-11_12h20.05.960,configural_featural,2020.2.4,MacIntel,60,1792,1120,3.300785,,,,,,,,,,,,,,,,,,,,,,,,,,,,,,,,,,,,,,,,,,,,,
,,,,,,,,,,,,0,-0.163380792,0,Stimuli/eimd.png,Stimuli/eimd.png,,,,,,,,,,,HR,1,2,2021-01-11_12h20.05.960,configural_featural,2020.2.4,MacIntel,60,1792,1120,,space,0,j,0,2.26987,0,0,0,0,1,3.03386,,,,,,,,,,,,,,,,,,,,,,,,,,,,,,,,,,
,,,,,,,,,,,,1,-0.163380792,1,Stimuli/f15.png,Stimuli/f24.png,,,,,,,,,,,HR,1,2,2021-01-11_12h20.05.960,configural_featural,2020.2.4,MacIntel,60,1792,1120,,space,1,j,1,1.283365,1,0,1,0,1,1.97355,,,,,,,,,,,,,,,,,,,,,,,,,,,,,,,,,,
,,,,,,,,,,,,0,-0.163380792,0,Stimuli/f142.png,Stimuli/f142.png,,,,,,,,,,,HR,1,2,2021-01-11_12h20.05.960,configural_featural,2020.2.4,MacIntel,60,1792,1120,,space,0,f,1,1.066165,2,0,2,0,1,1.71736,,,,,,,,,,,,,,,,,,,,,,,,,,,,,,,,,,
,,,,,,,,,,,,0,-0.163380792,1,Stimuli/eimd.png,Stimuli/f142.png,,,,,,,,,,,HR,1,2,2021-01-11_12h20.05.960,configural_featural,2020.2.4,MacIntel,60,1792,1120,,space,0,j,1,1.373635,3,0,3,0,1,2.72295,,,,,,,,,,,,,,,,,,,,,,,,,,,,,,,,,,
,,,,,,,,,,,,,,,,,,,,,,,,,,,HR,1,2,2021-01-11_12h20.05.960,configural_featural,2020.2.4,MacIntel,60,1792,1120,,,,,,,,,,,,,1,0,1,0,1,,,,,,,,,,,,,,,,,,,,,,,,,,,,,
,,,,,,,,,,,,,,,,,,,,,,,,,,,HR,1,2,2021-01-11_12h20.05.960,configural_featural,2020.2.4,MacIntel,60,1792,1120,,,,,,,,,,,,,,,,,,0,0,0,0,1,,,,,,,,,,,,,,,,,,,,,,,,
,,,,,,,,,,,,0,0.163380792,0,Stimuli/H7sim0.png,Stimuli/H7sim0.png,f,1,0.91671,,1,0,0,0,0,1,HR,1,2,2021-01-11_12h20.05.960,configural_featural,2020.2.4,MacIntel,60,1792,1120,,,,,,,,,,,,,,,,,,,,,,,,,,,,,,,,,,,,,,,,,,,,,,
,,,,,,,,,,,,0,0.163380792,1,Stimuli/H-8sim2.png,Stimuli/H5sim0.png,j,1,1.08325,,1,1,0,1,0,1,HR,1,2,2021-01-11_12h20.05.960,configural_featural,2020.2.4,MacIntel,60,1792,1120,,,,,,,,,,,,,,,,,,,,,,,,,,,,,,,,,,,,,,,,,,,,,,
,,,,,,,,,,,,1,0.163380792,0,Stimuli/H-8sim0.png,Stimuli/H-8sim0.png,f,1,2.147895,space,1,2,0,2,0,1,HR,1,2,2021-01-11_12h20.05.960,configural_featural,2020.2.4,MacIntel,60,1792,1120,2.4831,,,,,,,,,,,,,,,,,,,,,,,,,,,,,,,,,,,,,,,,,,,,,
,,,,,,,,,,,,0,0.163380792,1,Stimuli/H6sim0.png,Stimuli/H5sim0.png,f,0,2.18347,,1,3,0,3,0,1,HR,1,2,2021-01-11_12h20.05.960,configural_featural,2020.2.4,MacIntel,60,1792,1120,,,,,,,,,,,,,,,,,,,,,,,,,,,,,,,,,,,,,,,,,,,,,,
,,,,,,,,,,,,0,0.163380792,0,Stimuli/H8sim0.png,Stimuli/H8sim0.png,,,,,,,,,,,HR,1,2,2021-01-11_12h20.05.960,configural_featural,2020.2.4,MacIntel,60,1792,1120,,,1,f,1,2.21654,0,0,0,0,1,,,,,,,,,,,,,,,,,,,,,,,,,,,,,,,,,,,
,,,,,,,,,,,,0,0.163380792,1,Stimuli/H-8sim3.png,Stimuli/H8sim0.png,,,,,,,,,,,HR,1,2,2021-01-11_12h20.05.960,configural_featural,2020.2.4,MacIntel,60,1792,1120,,,1,j,1,1.14981,1,0,1,0,1,,,,,,,,,,,,,,,,,,,,,,,,,,,,,,,,,,,
,,,,,,,,,,,,1,0.163380792,0,Stimuli/H6sim0.png,Stimuli/H6sim0.png,,,,,,,,,,,HR,1,2,2021-01-11_12h20.05.960,configural_featural,2020.2.4,MacIntel,60,1792,1120,,,0,f,1,1.13415,2,0,2,0,1,,,,,,,,,,,,,,,,,,,,,,,,,,,,,,,,,,,
,,,,,,,,,,,,0,0.163380792,1,Stimuli/H6sim0.png,Stimuli/H-8sim2.png,,,,,,,,,,,HR,1,2,2021-01-11_12h20.05.960,configural_featural,2020.2.4,MacIntel,60,1792,1120,,,1,j,1,1.69979,3,0,3,0,1,,,,,,,,,,,,,,,,,,,,,,,,,,,,,,,,,,,
,,,,,,,,,,,,,,,,,,,,,,,,,,,HR,1,2,2021-01-11_12h20.05.960,configural_featural,2020.2.4,MacIntel,60,1792,1120,,,,,,,,,,,,,0,0,0,0,1,,,,,,,,,,,,,,,,,,,,,,,,,,,,,
,,,,,,,,,,,,0,-0.163380792,0,Stimuli/edmd.png,Stimuli/edmd.png,j,0,1.816225,,1,0,0,0,0,1,HR,1,2,2021-01-11_12h20.05.960,configural_featural,2020.2.4,MacIntel,60,1792,1120,,,,,,,,,,,,,,,,,,,,,,,,,,,,,,,,,,,,,,,,,,,,,,
,,,,,,,,,,,,1,-0.163380792,1,Stimuli/eomu.png,Stimuli/f142.png,f,0,2.833325,space,1,1,0,1,0,1,HR,1,2,2021-01-11_12h20.05.960,configural_featural,2020.2.4,MacIntel,60,1792,1120,3.35018,,,,,,,,,,,,,,,,,,,,,,,,,,,,,,,,,,,,,,,,,,,,,
,,,,,,,,,,,,0,-0.163380792,0,Stimuli/f15.png,Stimuli/f15.png,j,0,2.007065,,1,2,0,2,0,1,HR,1,2,2021-01-11_12h20.05.960,configural_featural,2020.2.4,MacIntel,60,1792,1120,,,,,,,,,,,,,,,,,,,,,,,,,,,,,,,,,,,,,,,,,,,,,,
,,,,,,,,,,,,0,-0.163380792,1,Stimuli/f15.png,Stimuli/eumu.png,j,1,1.099815,,1,3,0,3,0,1,HR,1,2,2021-01-11_12h20.05.960,configural_featural,2020.2.4,MacIntel,60,1792,1120,,,,,,,,,,,,,,,,,,,,,,,,,,,,,,,,,,,,,,,,,,,,,,
,,,,,,,,,,,,0,-0.163380792,0,Stimuli/f142.png,Stimuli/f142.png,,,,,,,,,,,HR,1,2,2021-01-11_12h20.05.960,configural_featural,2020.2.4,MacIntel,60,1792,1120,,,1,j,0,2.33696,0,0,0,0,1,,,,,,,,,,,,,,,,,,,,,,,,,,,,,,,,,,,
,,,,,,,,,,,,1,-0.163380792,1,Stimuli/f24.png,Stimuli/edmd.png,,,,,,,,,,,HR,1,2,2021-01-11_12h20.05.960,configural_featural,2020.2.4,MacIntel,60,1792,1120,,space,1,j,1,1.116035,1,0,1,0,1,1.833485,,,,,,,,,,,,,,,,,,,,,,,,,,,,,,,,,,
,,,,,,,,,,,,0,-0.163380792,0,Stimuli/eimd.png,Stimuli/eimd.png,,,,,,,,,,,HR,1,2,2021-01-11_12h20.05.960,configural_featural,2020.2.4,MacIntel,60,1792,1120,,,1,j,0,2.70455,2,0,2,0,1,,,,,,,,,,,,,,,,,,,,,,,,,,,,,,,,,,,
,,,,,,,,,,,,0,-0.163380792,1,Stimuli/f15.png,Stimuli/edmd.png,,,,,,,,,,,HR,1,2,2021-01-11_12h20.05.960,configural_featural,2020.2.4,MacIntel,60,1792,1120,,,1,j,1,1.033275,3,0,3,0,1,,,,,,,,,,,,,,,,,,,,,,,,,,,,,,,,,,,
,,,,,,,,,,,,,,,,,,,,,,,,,,,HR,1,2,2021-01-11_12h20.05.960,configural_featural,2020.2.4,MacIntel,60,1792,1120,,,,,,,,,,,,,1,0,1,0,1,,,,,,,,,,,,,,,,,,,,,,,,,,,,,
,,,,,,,,,,,,,,,,,,,,,,,,,,,HR,1,2,2021-01-11_12h20.05.960,configural_featural,2020.2.4,MacIntel,60,1792,1120,,,,,,,,,,,,,,,,,,,,,,,0,-0.163380792,1,Stimuli/edmd.png,Stimuli/edmd.png,conf_face,j,0,1.216555,,1,0,0,0,0,1,,,,,,,,
,,,,,,,,,,,,,,,,,,,,,,,,,,,HR,1,2,2021-01-11_12h20.05.960,configural_featural,2020.2.4,MacIntel,60,1792,1120,,,,,,,,,,,,,,,,,,,,,,,0,-0.163380792,0,Stimuli/eumu.png,Stimuli/eimd.png,conf_face,j,1,1.506015,,1,1,0,1,0,1,,,,,,,,
,,,,,,,,,,,,,,,,,,,,,,,,,,,HR,1,2,2021-01-11_12h20.05.960,configural_featural,2020.2.4,MacIntel,60,1792,1120,,,,,,,,,,,,,,,,,,,,,,,0,-0.163380792,1,Stimuli/eumu.png,Stimuli/eumu.png,conf_face,j,0,0.905845,,1,2,0,2,0,1,,,,,,,,
,,,,,,,,,,,,,,,,,,,,,,,,,,,HR,1,2,2021-01-11_12h20.05.960,configural_featural,2020.2.4,MacIntel,60,1792,1120,,,,,,,,,,,,,,,,,,,,,,,0,-0.163380792,0,Stimuli/eomu.png,Stimuli/eimd.png,conf_face,j,1,0.749935,,1,3,0,3,0,1,,,,,,,,
,,,,,,,,,,,,,,,,,,,,,,,,,,,HR,1,2,2021-01-11_12h20.05.960,configural_featural,2020.2.4,MacIntel,60,1792,1120,,,,,,,,,,,,,,,,,,,,,,,1,-0.163380792,1,Stimuli/eimd.png,Stimuli/eimd.png,conf_face,f,1,0.78229,,0,4,0,4,0,1,,,,,,,,
,,,,,,,,,,,,,,,,,,,,,,,,,,,HR,1,2,2021-01-11_12h20.05.960,configural_featural,2020.2.4,MacIntel,60,1792,1120,,,,,,,,,,,,,,,,,,,,,,,0,-0.163380792,0,Stimuli/edmd.png,Stimuli/eumu.png,conf_face,f,0,1.34903,space,0,5,0,5,0,1,0.18859,,,,,,,
,,,,,,,,,,,,,,,,,,,,,,,,,,,HR,1,2,2021-01-11_12h20.05.960,configural_featural,2020.2.4,MacIntel,60,1792,1120,,,,,,,,,,,,,,,,,,,,,,,0,-0.163380792,0,Stimuli/edmd.png,Stimuli/eimd.png,conf_face,j,1,1.11744,,1,6,0,6,0,1,,,,,,,,
,,,,,,,,,,,,,,,,,,,,,,,,,,,HR,1,2,2021-01-11_12h20.05.960,configural_featural,2020.2.4,MacIntel,60,1792,1120,,,,,,,,,,,,,,,,,,,,,,,0,-0.163380792,1,Stimuli/eomu.png,Stimuli/eomu.png,conf_face,j,0,1.498485,,1,7,0,7,0,1,,,,,,,,
,,,,,,,,,,,,,,,,,,,,,,,,,,,HR,1,2,2021-01-11_12h20.05.960,configural_featural,2020.2.4,MacIntel,60,1792,1120,,,,,,,,,,,,,,,,,,,,,,,1,-0.163380792,0,Stimuli/eomu.png,Stimuli/edmd.png,conf_face,f,0,2.217165,,0,8,0,8,0,1,,,,,,,,
,,,,,,,,,,,,,,,,,,,,,,,,,,,HR,1,2,2021-01-11_12h20.05.960,configural_featural,2020.2.4,MacIntel,60,1792,1120,,,,,,,,,,,,,,,,,,,,,,,0,-0.163380792,0,Stimuli/edmd.png,Stimuli/eomu.png,conf_face,j,1,1.156705,space,0,9,0,9,0,1,0.267275,,,,,,,
,,,,,,,,,,,,,,,,,,,,,,,,,,,HR,1,2,2021-01-11_12h20.05.960,configural_featural,2020.2.4,MacIntel,60,1792,1120,,,,,,,,,,,,,,,,,,,,,,,1,-0.163380792,1,Stimuli/edmd.png,Stimuli/edmd.png,conf_face,f,1,1.583355,,0,10,0,10,0,1,,,,,,,,
,,,,,,,,,,,,,,,,,,,,,,,,,,,HR,1,2,2021-01-11_12h20.05.960,configural_featural,2020.2.4,MacIntel,60,1792,1120,,,,,,,,,,,,,,,,,,,,,,,0,-0.163380792,1,Stimuli/eomu.png,Stimuli/eomu.png,conf_face,j,0,4.884035,space,0,11,0,11,0,1,0.21681,,,,,,,
,,,,,,,,,,,,,,,,,,,,,,,,,,,HR,1,2,2021-01-11_12h20.05.960,configural_featural,2020.2.4,MacIntel,60,1792,1120,,,,,,,,,,,,,,,,,,,,,,,0,-0.163380792,0,Stimuli/eumu.png,Stimuli/edmd.png,conf_face,f,0,2.069395,,1,12,0,12,0,1,,,,,,,,
,,,,,,,,,,,,,,,,,,,,,,,,,,,HR,1,2,2021-01-11_12h20.05.960,configural_featural,2020.2.4,MacIntel,60,1792,1120,,,,,,,,,,,,,,,,,,,,,,,0,-0.163380792,1,Stimuli/eimd.png,Stimuli/eimd.png,conf_face,j,0,0.736105,,1,13,0,13,0,1,,,,,,,,
,,,,,,,,,,,,,,,,,,,,,,,,,,,HR,1,2,2021-01-11_12h20.05.960,configural_featural,2020.2.4,MacIntel,60,1792,1120,,,,,,,,,,,,,,,,,,,,,,,0,-0.163380792,0,Stimuli/edmd.png,Stimuli/eimd.png,conf_face,j,1,0.832395,,1,14,0,14,0,1,,,,,,,,
,,,,,,,,,,,,,,,,,,,,,,,,,,,HR,1,2,2021-01-11_12h20.05.960,configural_featural,2020.2.4,MacIntel,60,1792,1120,,,,,,,,,,,,,,,,,,,,,,,1,-0.163380792,0,Stimuli/eimd.png,Stimuli/eumu.png,conf_face,f,0,1.669215,,0,15,0,15,0,1,,,,,,,,
,,,,,,,,,,,,,,,,,,,,,,,,,,,HR,1,2,2021-01-11_12h20.05.960,configural_featural,2020.2.4,MacIntel,60,1792,1120,,,,,,,,,,,,,,,,,,,,,,,0,-0.163380792,1,Stimuli/eumu.png,Stimuli/eumu.png,conf_face,f,1,1.51571,space,0,16,0,16,0,1,0.25017,,,,,,,
,,,,,,,,,,,,,,,,,,,,,,,,,,,HR,1,2,2021-01-11_12h20.05.960,configural_featural,2020.2.4,MacIntel,60,1792,1120,,,,,,,,,,,,,,,,,,,,,,,0,-0.163380792,1,Stimuli/eumu.png,Stimuli/eumu.png,conf_face,f,1,1.35652,,1,17,0,17,0,1,,,,,,,,
,,,,,,,,,,,,,,,,,,,,,,,,,,,HR,1,2,2021-01-11_12h20.05.960,configural_featural,2020.2.4,MacIntel,60,1792,1120,,,,,,,,,,,,,,,,,,,,,,,1,-0.163380792,1,Stimuli/eomu.png,Stimuli/eomu.png,conf_face,j,0,1.07279,,0,18,0,18,0,1,,,,,,,,
,,,,,,,,,,,,,,,,,,,,,,,,,,,HR,1,2,2021-01-11_12h20.05.960,configural_featural,2020.2.4,MacIntel,60,1792,1120,,,,,,,,,,,,,,,,,,,,,,,0,-0.163380792,0,Stimuli/eimd.png,Stimuli/edmd.png,conf_face,j,1,1.36564,space,0,19,0,19,0,1,0.403435,,,,,,,
,,,,,,,,,,,,,,,,,,,,,,,,,,,HR,1,2,2021-01-11_12h20.05.960,configural_featural,2020.2.4,MacIntel,60,1792,1120,,,,,,,,,,,,,,,,,,,,,,,0,-0.163380792,0,Stimuli/eomu.png,Stimuli/edmd.png,conf_face,j,1,1.26552,,1,20,0,20,0,1,,,,,,,,
,,,,,,,,,,,,,,,,,,,,,,,,,,,HR,1,2,2021-01-11_12h20.05.960,configural_featural,2020.2.4,MacIntel,60,1792,1120,,,,,,,,,,,,,,,,,,,,,,,0,-0.163380792,1,Stimuli/edmd.png,Stimuli/edmd.png,conf_face,f,1,1.665935,,1,21,0,21,0,1,,,,,,,,
,,,,,,,,,,,,,,,,,,,,,,,,,,,HR,1,2,2021-01-11_12h20.05.960,configural_featural,2020.2.4,MacIntel,60,1792,1120,,,,,,,,,,,,,,,,,,,,,,,0,-0.163380792,1,Stimuli/eimd.png,Stimuli/eimd.png,conf_face,j,0,1.721145,,1,22,0,22,0,1,,,,,,,,
,,,,,,,,,,,,,,,,,,,,,,,,,,,HR,1,2,2021-01-11_12h20.05.960,configural_featural,2020.2.4,MacIntel,60,1792,1120,,,,,,,,,,,,,,,,,,,,,,,1,-0.163380792,0,Stimuli/eimd.png,Stimuli/eomu.png,conf_face,j,1,0.798975,,0,23,0,23,0,1,,,,,,,,
,,,,,,,,,,,,,,,,,,,,,,,,,,,HR,1,2,2021-01-11_12h20.05.960,configural_featural,2020.2.4,MacIntel,60,1792,1120,,,,,,,,,,,,,,,,,,,,,,,0,-0.163380792,1,Stimuli/eomu.png,Stimuli/eomu.png,conf_face,f,1,1.35657,space,0,24,0,24,0,1,0.33376,,,,,,,
,,,,,,,,,,,,,,,,,,,,,,,,,,,HR,1,2,2021-01-11_12h20.05.960,configural_featural,2020.2.4,MacIntel,60,1792,1120,,,,,,,,,,,,,,,,,,,,,,,0,-0.163380792,1,Stimuli/eumu.png,Stimuli/eumu.png,conf_face,f,1,1.417855,,1,25,0,25,0,1,,,,,,,,
,,,,,,,,,,,,,,,,,,,,,,,,,,,HR,1,2,2021-01-11_12h20.05.960,configural_featural,2020.2.4,MacIntel,60,1792,1120,,,,,,,,,,,,,,,,,,,,,,,1,-0.163380792,0,Stimuli/eimd.png,Stimuli/edmd.png,conf_face,j,1,0.90056,,0,26,0,26,0,1,,,,,,,,
,,,,,,,,,,,,,,,,,,,,,,,,,,,HR,1,2,2021-01-11_12h20.05.960,configural_featural,2020.2.4,MacIntel,60,1792,1120,,,,,,,,,,,,,,,,,,,,,,,0,-0.163380792,1,Stimuli/edmd.png,Stimuli/edmd.png,conf_face,f,1,1.3,space,0,27,0,27,0,1,0.36735,,,,,,,
,,,,,,,,,,,,,,,,,,,,,,,,,,,HR,1,2,2021-01-11_12h20.05.960,configural_featural,2020.2.4,MacIntel,60,1792,1120,,,,,,,,,,,,,,,,,,,,,,,0,-0.163380792,0,Stimuli/eimd.png,Stimuli/eumu.png,conf_face,j,1,1.31588,,1,28,0,28,0,1,,,,,,,,
,,,,,,,,,,,,,,,,,,,,,,,,,,,HR,1,2,2021-01-11_12h20.05.960,configural_featural,2020.2.4,MacIntel,60,1792,1120,,,,,,,,,,,,,,,,,,,,,,,1,-0.163380792,0,Stimuli/eomu.png,Stimuli/eumu.png,conf_face,f,0,1.667235,,0,29,0,29,0,1,,,,,,,,
,,,,,,,,,,,,,,,,,,,,,,,,,,,HR,1,2,2021-01-11_12h20.05.960,configural_featural,2020.2.4,MacIntel,60,1792,1120,,,,,,,,,,,,,,,,,,,,,,,0,-0.163380792,0,Stimuli/eomu.png,Stimuli/eimd.png,conf_face,j,1,1.30264,space,0,30,0,30,0,1,0.323155,,,,,,,
,,,,,,,,,,,,,,,,,,,,,,,,,,,HR,1,2,2021-01-11_12h20.05.960,configural_featural,2020.2.4,MacIntel,60,1792,1120,,,,,,,,,,,,,,,,,,,,,,,0,-0.163380792,1,Stimuli/eimd.png,Stimuli/eimd.png,conf_face,f,1,1.917005,,1,31,0,31,0,1,,,,,,,,
,,,,,,,,,,,,,,,,,,,,,,,,,,,HR,1,2,2021-01-11_12h20.05.960,configural_featural,2020.2.4,MacIntel,60,1792,1120,,,,,,,,,,,,,,,,,,,,,,,1,-0.163380792,0,Stimuli/eimd.png,Stimuli/eomu.png,conf_face,j,1,0.718995,,0,32,0,32,0,1,,,,,,,,
,,,,,,,,,,,,,,,,,,,,,,,,,,,HR,1,2,2021-01-11_12h20.05.960,configural_featural,2020.2.4,MacIntel,60,1792,1120,,,,,,,,,,,,,,,,,,,,,,,0,-0.163380792,0,Stimuli/eumu.png,Stimuli/eimd.png,conf_face,j,1,1.13329,space,0,33,0,33,0,1,0.76868,,,,,,,
,,,,,,,,,,,,,,,,,,,,,,,,,,,HR,1,2,2021-01-11_12h20.05.960,configural_featural,2020.2.4,MacIntel,60,1792,1120,,,,,,,,,,,,,,,,,,,,,,,0,-0.163380792,1,Stimuli/eimd.png,Stimuli/eimd.png,conf_face,f,1,1.249875,,1,34,0,34,0,1,,,,,,,,
,,,,,,,,,,,,,,,,,,,,,,,,,,,HR,1,2,2021-01-11_12h20.05.960,configural_featural,2020.2.4,MacIntel,60,1792,1120,,,,,,,,,,,,,,,,,,,,,,,0,-0.163380792,1,Stimuli/edmd.png,Stimuli/edmd.png,conf_face,f,1,1.18294,,1,35,0,35,0,1,,,,,,,,
,,,,,,,,,,,,,,,,,,,,,,,,,,,HR,1,2,2021-01-11_12h20.05.960,configural_featural,2020.2.4,MacIntel,60,1792,1120,,,,,,,,,,,,,,,,,,,,,,,0,-0.163380792,0,Stimuli/eumu.png,Stimuli/edmd.png,conf_face,j,1,0.967035,,1,36,0,36,0,1,,,,,,,,
,,,,,,,,,,,,,,,,,,,,,,,,,,,HR,1,2,2021-01-11_12h20.05.960,configural_featural,2020.2.4,MacIntel,60,1792,1120,,,,,,,,,,,,,,,,,,,,,,,0,-0.163380792,0,Stimuli/eumu.png,Stimuli/eomu.png,conf_face,j,1,0.86607,,1,37,0,37,0,1,,,,,,,,
,,,,,,,,,,,,,,,,,,,,,,,,,,,HR,1,2,2021-01-11_12h20.05.960,configural_featural,2020.2.4,MacIntel,60,1792,1120,,,,,,,,,,,,,,,,,,,,,,,1,-0.163380792,1,Stimuli/eumu.png,Stimuli/eumu.png,conf_face,f,1,1.188375,,0,38,0,38,0,1,,,,,,,,
,,,,,,,,,,,,,,,,,,,,,,,,,,,HR,1,2,2021-01-11_12h20.05.960,configural_featural,2020.2.4,MacIntel,60,1792,1120,,,,,,,,,,,,,,,,,,,,,,,1,-0.163380792,1,Stimuli/eomu.png,Stimuli/eomu.png,conf_face,f,1,1.26581,space,1,39,0,39,0,1,0.31687,,,,,,,
,,,,,,,,,,,,,,,,,,,,,,,,,,,HR,1,2,2021-01-11_12h20.05.960,configural_featural,2020.2.4,MacIntel,60,1792,1120,,,,,,,,,,,,,,,,,,,,,,,0,-0.163380792,0,Stimuli/eumu.png,Stimuli/eomu.png,conf_face,j,1,0.917505,,1,40,0,40,0,1,,,,,,,,
,,,,,,,,,,,,,,,,,,,,,,,,,,,HR,1,2,2021-01-11_12h20.05.960,configural_featural,2020.2.4,MacIntel,60,1792,1120,,,,,,,,,,,,,,,,,,,,,,,0,-0.163380792,1,Stimuli/eumu.png,Stimuli/eumu.png,conf_face,f,1,0.96665,,1,41,0,41,0,1,,,,,,,,
,,,,,,,,,,,,,,,,,,,,,,,,,,,HR,1,2,2021-01-11_12h20.05.960,configural_featural,2020.2.4,MacIntel,60,1792,1120,,,,,,,,,,,,,,,,,,,,,,,0,-0.163380792,0,Stimuli/edmd.png,Stimuli/eomu.png,conf_face,j,1,1.8741,,1,42,0,42,0,1,,,,,,,,
,,,,,,,,,,,,,,,,,,,,,,,,,,,HR,1,2,2021-01-11_12h20.05.960,configural_featural,2020.2.4,MacIntel,60,1792,1120,,,,,,,,,,,,,,,,,,,,,,,0,-0.163380792,0,Stimuli/edmd.png,Stimuli/eumu.png,conf_face,j,1,1.131495,,1,43,0,43,0,1,,,,,,,,
,,,,,,,,,,,,,,,,,,,,,,,,,,,HR,1,2,2021-01-11_12h20.05.960,configural_featural,2020.2.4,MacIntel,60,1792,1120,,,,,,,,,,,,,,,,,,,,,,,0,-0.163380792,1,Stimuli/eomu.png,Stimuli/eomu.png,conf_face,f,1,1.021235,,1,44,0,44,0,1,,,,,,,,
,,,,,,,,,,,,,,,,,,,,,,,,,,,HR,1,2,2021-01-11_12h20.05.960,configural_featural,2020.2.4,MacIntel,60,1792,1120,,,,,,,,,,,,,,,,,,,,,,,1,-0.163380792,1,Stimuli/eimd.png,Stimuli/eimd.png,conf_face,f,1,0.91571,,0,45,0,45,0,1,,,,,,,,
,,,,,,,,,,,,,,,,,,,,,,,,,,,HR,1,2,2021-01-11_12h20.05.960,configural_featural,2020.2.4,MacIntel,60,1792,1120,,,,,,,,,,,,,,,,,,,,,,,0,-0.163380792,1,Stimuli/edmd.png,Stimuli/edmd.png,conf_face,f,1,1.14986,space,0,46,0,46,0,1,0.31591,,,,,,,
,,,,,,,,,,,,,,,,,,,,,,,,,,,HR,1,2,2021-01-11_12h20.05.960,configural_featural,2020.2.4,MacIntel,60,1792,1120,,,,,,,,,,,,,,,,,,,,,,,0,-0.163380792,0,Stimuli/eomu.png,Stimuli/eumu.png,conf_face,j,1,1.054285,,1,47,0,47,0,1,,,,,,,,
,,,,,,,,,,,,,,,,,,,,,,,,,,,HR,1,2,2021-01-11_12h20.05.960,configural_featural,2020.2.4,MacIntel,60,1792,1120,,,,,,,,,,,,,,,,,,,,,,,,,,,,,,,,,,,,,,,,0,0,0,0,1,conf_face,Designs/instructions_face_1234.png
,,,,,,,,,,,,,,,,,,,,,,,,,,,HR,1,2,2021-01-11_12h20.05.960,configural_featural,2020.2.4,MacIntel,60,1792,1120,,,,,,,,,,,,,,,,,,,,,,,0,-0.163380792,0,Stimuli/H-8sim3.png,Stimuli/H-8sim1.png,conf_haus,f,0,1.36643,,1,0,0,0,0,1,,,,,,,,
,,,,,,,,,,,,,,,,,,,,,,,,,,,HR,1,2,2021-01-11_12h20.05.960,configural_featural,2020.2.4,MacIntel,60,1792,1120,,,,,,,,,,,,,,,,,,,,,,,0,-0.163380792,0,Stimuli/H-8sim2.png,Stimuli/H-8sim3.png,conf_haus,f,0,1.09926,,1,1,0,1,0,1,,,,,,,,
,,,,,,,,,,,,,,,,,,,,,,,,,,,HR,1,2,2021-01-11_12h20.05.960,configural_featural,2020.2.4,MacIntel,60,1792,1120,,,,,,,,,,,,,,,,,,,,,,,1,-0.163380792,1,Stimuli/H-8sim3.png,Stimuli/H-8sim3.png,conf_haus,f,1,0.98923,,0,2,0,2,0,1,,,,,,,,
,,,,,,,,,,,,,,,,,,,,,,,,,,,HR,1,2,2021-01-11_12h20.05.960,configural_featural,2020.2.4,MacIntel,60,1792,1120,,,,,,,,,,,,,,,,,,,,,,,0,-0.163380792,1,Stimuli/H-8sim0.png,Stimuli/H-8sim0.png,conf_haus,f,1,1.489,space,0,3,0,3,0,1,0.323905,,,,,,,
,,,,,,,,,,,,,,,,,,,,,,,,,,,HR,1,2,2021-01-11_12h20.05.960,configural_featural,2020.2.4,MacIntel,60,1792,1120,,,,,,,,,,,,,,,,,,,,,,,0,-0.163380792,1,Stimuli/H-8sim2.png,Stimuli/H-8sim2.png,conf_haus,f,1,1.183105,,1,4,0,4,0,1,,,,,,,,
,,,,,,,,,,,,,,,,,,,,,,,,,,,HR,1,2,2021-01-11_12h20.05.960,configural_featural,2020.2.4,MacIntel,60,1792,1120,,,,,,,,,,,,,,,,,,,,,,,0,-0.163380792,0,Stimuli/H-8sim1.png,Stimuli/H-8sim3.png,conf_haus,f,0,2.31906,,1,5,0,5,0,1,,,,,,,,
,,,,,,,,,,,,,,,,,,,,,,,,,,,HR,1,2,2021-01-11_12h20.05.960,configural_featural,2020.2.4,MacIntel,60,1792,1120,,,,,,,,,,,,,,,,,,,,,,,0,-0.163380792,1,Stimuli/H-8sim1.png,Stimuli/H-8sim1.png,conf_haus,f,1,2.450135,,1,6,0,6,0,1,,,,,,,,
,,,,,,,,,,,,,,,,,,,,,,,,,,,HR,1,2,2021-01-11_12h20.05.960,configural_featural,2020.2.4,MacIntel,60,1792,1120,,,,,,,,,,,,,,,,,,,,,,,1,-0.163380792,0,Stimuli/H-8sim2.png,Stimuli/H-8sim0.png,conf_haus,j,1,1.367025,,0,7,0,7,0,1,,,,,,,,
,,,,,,,,,,,,,,,,,,,,,,,,,,,HR,1,2,2021-01-11_12h20.05.960,configural_featural,2020.2.4,MacIntel,60,1792,1120,,,,,,,,,,,,,,,,,,,,,,,0,-0.163380792,0,Stimuli/H-8sim1.png,Stimuli/H-8sim2.png,conf_haus,f,0,2.899945,,1,8,0,8,0,1,,,,,,,,
,,,,,,,,,,,,,,,,,,,,,,,,,,,HR,1,2,2021-01-11_12h20.05.960,configural_featural,2020.2.4,MacIntel,60,1792,1120,,,,,,,,,,,,,,,,,,,,,,,0,-0.163380792,1,Stimuli/H-8sim2.png,Stimuli/H-8sim2.png,conf_haus,j,0,1.105905,,1,9,0,9,0,1,,,,,,,,
,,,,,,,,,,,,,,,,,,,,,,,,,,,HR,1,2,2021-01-11_12h20.05.960,configural_featural,2020.2.4,MacIntel,60,1792,1120,,,,,,,,,,,,,,,,,,,,,,,1,-0.163380792,0,Stimuli/H-8sim3.png,Stimuli/H-8sim2.png,conf_haus,f,0,1.02164,,0,10,0,10,0,1,,,,,,,,
,,,,,,,,,,,,,,,,,,,,,,,,,,,HR,1,2,2021-01-11_12h20.05.960,configural_featural,2020.2.4,MacIntel,60,1792,1120,,,,,,,,,,,,,,,,,,,,,,,0,-0.163380792,1,Stimuli/H-8sim3.png,Stimuli/H-8sim3.png,conf_haus,f,1,1.905305,space,0,11,0,11,0,1,0.28362,,,,,,,
,,,,,,,,,,,,,,,,,,,,,,,,,,,HR,1,2,2021-01-11_12h20.05.960,configural_featural,2020.2.4,MacIntel,60,1792,1120,,,,,,,,,,,,,,,,,,,,,,,0,-0.163380792,0,Stimuli/H-8sim1.png,Stimuli/H-8sim2.png,conf_haus,f,0,2.988535,,1,12,0,12,0,1,,,,,,,,
,,,,,,,,,,,,,,,,,,,,,,,,,,,HR,1,2,2021-01-11_12h20.05.960,configural_featural,2020.2.4,MacIntel,60,1792,1120,,,,,,,,,,,,,,,,,,,,,,,0,-0.163380792,1,Stimuli/H-8sim1.png,Stimuli/H-8sim1.png,conf_haus,f,1,1.16525,,1,13,0,13,0,1,,,,,,,,
,,,,,,,,,,,,,,,,,,,,,,,,,,,HR,1,2,2021-01-11_12h20.05.960,configural_featural,2020.2.4,MacIntel,60,1792,1120,,,,,,,,,,,,,,,,,,,,,,,1,-0.163380792,0,Stimuli/H-8sim0.png,Stimuli/H-8sim1.png,conf_haus,j,1,1.28388,space,1,14,0,14,0,1,1.51622,,,,,,,
,,,,,,,,,,,,,,,,,,,,,,,,,,,HR,1,2,2021-01-11_12h20.05.960,configural_featural,2020.2.4,MacIntel,60,1792,1120,,,,,,,,,,,,,,,,,,,,,,,0,-0.163380792,1,Stimuli/H-8sim0.png,Stimuli/H-8sim0.png,conf_haus,f,1,1.039385,,1,15,0,15,0,1,,,,,,,,
,,,,,,,,,,,,,,,,,,,,,,,,,,,HR,1,2,2021-01-11_12h20.05.960,configural_featural,2020.2.4,MacIntel,60,1792,1120,,,,,,,,,,,,,,,,,,,,,,,0,-0.163380792,0,Stimuli/H-8sim1.png,Stimuli/H-8sim0.png,conf_haus,f,0,1.582505,,1,16,0,16,0,1,,,,,,,,
,,,,,,,,,,,,,,,,,,,,,,,,,,,HR,1,2,2021-01-11_12h20.05.960,configural_featural,2020.2.4,MacIntel,60,1792,1120,,,,,,,,,,,,,,,,,,,,,,,0,-0.163380792,1,Stimuli/H-8sim1.png,Stimuli/H-8sim1.png,conf_haus,f,1,1.35343,,1,17,0,17,0,1,,,,,,,,
,,,,,,,,,,,,,,,,,,,,,,,,,,,HR,1,2,2021-01-11_12h20.05.960,configural_featural,2020.2.4,MacIntel,60,1792,1120,,,,,,,,,,,,,,,,,,,,,,,1,-0.163380792,0,Stimuli/H-8sim0.png,Stimuli/H-8sim1.png,conf_haus,j,1,1.11652,,0,18,0,18,0,1,,,,,,,,
,,,,,,,,,,,,,,,,,,,,,,,,,,,HR,1,2,2021-01-11_12h20.05.960,configural_featural,2020.2.4,MacIntel,60,1792,1120,,,,,,,,,,,,,,,,,,,,,,,0,-0.163380792,1,Stimuli/H-8sim3.png,Stimuli/H-8sim3.png,conf_haus,f,1,2.81901,,1,19,0,19,0,1,,,,,,,,
,,,,,,,,,,,,,,,,,,,,,,,,,,,HR,1,2,2021-01-11_12h20.05.960,configural_featural,2020.2.4,MacIntel,60,1792,1120,,,,,,,,,,,,,,,,,,,,,,,0,-0.163380792,0,Stimuli/H-8sim2.png,Stimuli/H-8sim0.png,conf_haus,j,1,1.06707,,1,20,0,20,0,1,,,,,,,,
,,,,,,,,,,,,,,,,,,,,,,,,,,,HR,1,2,2021-01-11_12h20.05.960,configural_featural,2020.2.4,MacIntel,60,1792,1120,,,,,,,,,,,,,,,,,,,,,,,0,-0.163380792,1,Stimuli/H-8sim0.png,Stimuli/H-8sim0.png,conf_haus,f,1,1.28984,,1,21,0,21,0,1,,,,,,,,
,,,,,,,,,,,,,,,,,,,,,,,,,,,HR,1,2,2021-01-11_12h20.05.960,configural_featural,2020.2.4,MacIntel,60,1792,1120,,,,,,,,,,,,,,,,,,,,,,,0,-0.163380792,1,Stimuli/H-8sim2.png,Stimuli/H-8sim2.png,conf_haus,f,1,1.440085,,1,22,0,22,0,1,,,,,,,,
,,,,,,,,,,,,,,,,,,,,,,,,,,,HR,1,2,2021-01-11_12h20.05.960,configural_featural,2020.2.4,MacIntel,60,1792,1120,,,,,,,,,,,,,,,,,,,,,,,1,-0.163380792,0,Stimuli/H-8sim1.png,Stimuli/H-8sim3.png,conf_haus,j,1,0.873105,,0,23,0,23,0,1,,,,,,,,
,,,,,,,,,,,,,,,,,,,,,,,,,,,HR,1,2,2021-01-11_12h20.05.960,configural_featural,2020.2.4,MacIntel,60,1792,1120,,,,,,,,,,,,,,,,,,,,,,,0,-0.163380792,0,Stimuli/H-8sim3.png,Stimuli/H-8sim0.png,conf_haus,f,0,1.124405,,1,24,0,24,0,1,,,,,,,,
,,,,,,,,,,,,,,,,,,,,,,,,,,,HR,1,2,2021-01-11_12h20.05.960,configural_featural,2020.2.4,MacIntel,60,1792,1120,,,,,,,,,,,,,,,,,,,,,,,0,-0.163380792,0,Stimuli/H-8sim0.png,Stimuli/H-8sim3.png,conf_haus,j,1,0.83052,,1,25,0,25,0,1,,,,,,,,
,,,,,,,,,,,,,,,,,,,,,,,,,,,HR,1,2,2021-01-11_12h20.05.960,configural_featural,2020.2.4,MacIntel,60,1792,1120,,,,,,,,,,,,,,,,,,,,,,,0,-0.163380792,1,Stimuli/H-8sim1.png,Stimuli/H-8sim1.png,conf_haus,f,1,1.683265,,1,26,0,26,0,1,,,,,,,,
,,,,,,,,,,,,,,,,,,,,,,,,,,,HR,1,2,2021-01-11_12h20.05.960,configural_featural,2020.2.4,MacIntel,60,1792,1120,,,,,,,,,,,,,,,,,,,,,,,1,-0.163380792,1,Stimuli/H-8sim3.png,Stimuli/H-8sim3.png,conf_haus,f,1,0.816555,space,1,27,0,27,0,1,1.26698,,,,,,,
,,,,,,,,,,,,,,,,,,,,,,,,,,,HR,1,2,2021-01-11_12h20.05.960,configural_featural,2020.2.4,MacIntel,60,1792,1120,,,,,,,,,,,,,,,,,,,,,,,0,-0.163380792,1,Stimuli/H-8sim0.png,Stimuli/H-8sim0.png,conf_haus,f,1,0.85051,,1,28,0,28,0,1,,,,,,,,
,,,,,,,,,,,,,,,,,,,,,,,,,,,HR,1,2,2021-01-11_12h20.05.960,configural_featural,2020.2.4,MacIntel,60,1792,1120,,,,,,,,,,,,,,,,,,,,,,,0,-0.163380792,0,Stimuli/H-8sim3.png,Stimuli/H-8sim0.png,conf_haus,j,1,0.83422,,1,29,0,29,0,1,,,,,,,,
,,,,,,,,,,,,,,,,,,,,,,,,,,,HR,1,2,2021-01-11_12h20.05.960,configural_featural,2020.2.4,MacIntel,60,1792,1120,,,,,,,,,,,,,,,,,,,,,,,0,-0.163380792,0,Stimuli/H-8sim0.png,Stimuli/H-8sim2.png,conf_haus,f,0,3.41572,,1,30,0,30,0,1,,,,,,,,
,,,,,,,,,,,,,,,,,,,,,,,,,,,HR,1,2,2021-01-11_12h20.05.960,configural_featural,2020.2.4,MacIntel,60,1792,1120,,,,,,,,,,,,,,,,,,,,,,,1,-0.163380792,1,Stimuli/H-8sim2.png,Stimuli/H-8sim2.png,conf_haus,f,1,0.63435,space,1,31,0,31,0,1,0.83802,,,,,,,
,,,,,,,,,,,,,,,,,,,,,,,,,,,HR,1,2,2021-01-11_12h20.05.960,configural_featural,2020.2.4,MacIntel,60,1792,1120,,,,,,,,,,,,,,,,,,,,,,,1,-0.163380792,0,Stimuli/H-8sim2.png,Stimuli/H-8sim1.png,conf_haus,j,1,0.900215,space,1,32,0,32,0,1,1.01668,,,,,,,
,,,,,,,,,,,,,,,,,,,,,,,,,,,HR,1,2,2021-01-11_12h20.05.960,configural_featural,2020.2.4,MacIntel,60,1792,1120,,,,,,,,,,,,,,,,,,,,,,,0,-0.163380792,0,Stimuli/H-8sim2.png,Stimuli/H-8sim1.png,conf_haus,f,0,1.399325,,1,33,0,33,0,1,,,,,,,,
,,,,,,,,,,,,,,,,,,,,,,,,,,,HR,1,2,2021-01-11_12h20.05.960,configural_featural,2020.2.4,MacIntel,60,1792,1120,,,,,,,,,,,,,,,,,,,,,,,0,-0.163380792,1,Stimuli/H-8sim3.png,Stimuli/H-8sim3.png,conf_haus,f,1,0.68003,,1,34,0,34,0,1,,,,,,,,
,,,,,,,,,,,,,,,,,,,,,,,,,,,HR,1,2,2021-01-11_12h20.05.960,configural_featural,2020.2.4,MacIntel,60,1792,1120,,,,,,,,,,,,,,,,,,,,,,,0,-0.163380792,1,Stimuli/H-8sim1.png,Stimuli/H-8sim1.png,conf_haus,f,1,0.766805,,1,35,0,35,0,1,,,,,,,,
,,,,,,,,,,,,,,,,,,,,,,,,,,,HR,1,2,2021-01-11_12h20.05.960,configural_featural,2020.2.4,MacIntel,60,1792,1120,,,,,,,,,,,,,,,,,,,,,,,0,-0.163380792,1,Stimuli/H-8sim2.png,Stimuli/H-8sim2.png,conf_haus,f,1,0.56993,,1,36,0,36,0,1,,,,,,,,
,,,,,,,,,,,,,,,,,,,,,,,,,,,HR,1,2,2021-01-11_12h20.05.960,configural_featural,2020.2.4,MacIntel,60,1792,1120,,,,,,,,,,,,,,,,,,,,,,,1,-0.163380792,0,Stimuli/H-8sim0.png,Stimuli/H-8sim2.png,conf_haus,j,1,0.60024,space,1,37,0,37,0,1,0.81674,,,,,,,
,,,,,,,,,,,,,,,,,,,,,,,,,,,HR,1,2,2021-01-11_12h20.05.960,configural_featural,2020.2.4,MacIntel,60,1792,1120,,,,,,,,,,,,,,,,,,,,,,,0,-0.163380792,1,Stimuli/H-8sim0.png,Stimuli/H-8sim0.png,conf_haus,f,1,0.66695,,1,38,0,38,0,1,,,,,,,,
,,,,,,,,,,,,,,,,,,,,,,,,,,,HR,1,2,2021-01-11_12h20.05.960,configural_featural,2020.2.4,MacIntel,60,1792,1120,,,,,,,,,,,,,,,,,,,,,,,0,-0.163380792,0,Stimuli/H-8sim3.png,Stimuli/H-8sim2.png,conf_haus,f,0,0.58569,,1,39,0,39,0,1,,,,,,,,
,,,,,,,,,,,,,,,,,,,,,,,,,,,HR,1,2,2021-01-11_12h20.05.960,configural_featural,2020.2.4,MacIntel,60,1792,1120,,,,,,,,,,,,,,,,,,,,,,,1,-0.163380792,1,Stimuli/H-8sim0.png,Stimuli/H-8sim0.png,conf_haus,f,1,0.55643,space,1,40,0,40,0,1,0.755985,,,,,,,
,,,,,,,,,,,,,,,,,,,,,,,,,,,HR,1,2,2021-01-11_12h20.05.960,configural_featural,2020.2.4,MacIntel,60,1792,1120,,,,,,,,,,,,,,,,,,,,,,,0,-0.163380792,0,Stimuli/H-8sim3.png,Stimuli/H-8sim1.png,conf_haus,j,1,0.90341,,1,41,0,41,0,1,,,,,,,,
,,,,,,,,,,,,,,,,,,,,,,,,,,,HR,1,2,2021-01-11_12h20.05.960,configural_featural,2020.2.4,MacIntel,60,1792,1120,,,,,,,,,,,,,,,,,,,,,,,0,-0.163380792,0,Stimuli/H-8sim0.png,Stimuli/H-8sim3.png,conf_haus,j,1,1.022885,,1,42,0,42,0,1,,,,,,,,
,,,,,,,,,,,,,,,,,,,,,,,,,,,HR,1,2,2021-01-11_12h20.05.960,configural_featural,2020.2.4,MacIntel,60,1792,1120,,,,,,,,,,,,,,,,,,,,,,,1,-0.163380792,0,Stimuli/H-8sim1.png,Stimuli/H-8sim0.png,conf_haus,j,1,0.88721,space,1,43,0,43,0,1,0.755615,,,,,,,
,,,,,,,,,,,,,,,,,,,,,,,,,,,HR,1,2,2021-01-11_12h20.05.960,configural_featural,2020.2.4,MacIntel,60,1792,1120,,,,,,,,,,,,,,,,,,,,,,,0,-0.163380792,1,Stimuli/H-8sim3.png,Stimuli/H-8sim3.png,conf_haus,f,1,0.6995,,1,44,0,44,0,1,,,,,,,,
,,,,,,,,,,,,,,,,,,,,,,,,,,,HR,1,2,2021-01-11_12h20.05.960,configural_featural,2020.2.4,MacIntel,60,1792,1120,,,,,,,,,,,,,,,,,,,,,,,0,-0.163380792,0,Stimuli/H-8sim2.png,Stimuli/H-8sim3.png,conf_haus,j,1,0.570825,,1,45,0,45,0,1,,,,,,,,
,,,,,,,,,,,,,,,,,,,,,,,,,,,HR,1,2,2021-01-11_12h20.05.960,configural_featural,2020.2.4,MacIntel,60,1792,1120,,,,,,,,,,,,,,,,,,,,,,,0,-0.163380792,1,Stimuli/H-8sim2.png,Stimuli/H-8sim2.png,conf_haus,f,1,0.666535,,1,46,0,46,0,1,,,,,,,,
,,,,,,,,,,,,,,,,,,,,,,,,,,,HR,1,2,2021-01-11_12h20.05.960,configural_featural,2020.2.4,MacIntel,60,1792,1120,,,,,,,,,,,,,,,,,,,,,,,0,-0.163380792,1,Stimuli/H-8sim1.png,Stimuli/H-8sim1.png,conf_haus,f,1,0.750255,,1,47,0,47,0,1,,,,,,,,
,,,,,,,,,,,,,,,,,,,,,,,,,,,HR,1,2,2021-01-11_12h20.05.960,configural_featural,2020.2.4,MacIntel,60,1792,1120,,,,,,,,,,,,,,,,,,,,,,,,,,,,,,,,,,,,,,,,0,1,1,1,1,conf_haus,Designs/instructions_haus_1234.png
,,,,,,,,,,,,,,,,,,,,,,,,,,,HR,1,2,2021-01-11_12h20.05.960,configural_featural,2020.2.4,MacIntel,60,1792,1120,,,,,,,,,,,,,,,,,,,,,,,0,-0.163380792,0,Stimuli/f142.png,Stimuli/f15.png,feat_face,j,1,1.01765,,1,0,0,0,0,1,,,,,,,,
,,,,,,,,,,,,,,,,,,,,,,,,,,,HR,1,2,2021-01-11_12h20.05.960,configural_featural,2020.2.4,MacIntel,60,1792,1120,,,,,,,,,,,,,,,,,,,,,,,0,-0.163380792,0,Stimuli/f142.png,Stimuli/f15.png,feat_face,j,1,0.68258,,1,1,0,1,0,1,,,,,,,,
,,,,,,,,,,,,,,,,,,,,,,,,,,,HR,1,2,2021-01-11_12h20.05.960,configural_featural,2020.2.4,MacIntel,60,1792,1120,,,,,,,,,,,,,,,,,,,,,,,0,-0.163380792,1,Stimuli/f131.png,Stimuli/f131.png,feat_face,f,1,0.854615,,1,2,0,2,0,1,,,,,,,,
,,,,,,,,,,,,,,,,,,,,,,,,,,,HR,1,2,2021-01-11_12h20.05.960,configural_featural,2020.2.4,MacIntel,60,1792,1120,,,,,,,,,,,,,,,,,,,,,,,0,-0.163380792,1,Stimuli/f142.png,Stimuli/f142.png,feat_face,f,1,0.835705,,1,3,0,3,0,1,,,,,,,,
,,,,,,,,,,,,,,,,,,,,,,,,,,,HR,1,2,2021-01-11_12h20.05.960,configural_featural,2020.2.4,MacIntel,60,1792,1120,,,,,,,,,,,,,,,,,,,,,,,1,-0.163380792,0,Stimuli/f142.png,Stimuli/f131.png,feat_face,j,1,1.43798,space,1,4,0,4,0,1,0.65107,,,,,,,
,,,,,,,,,,,,,,,,,,,,,,,,,,,HR,1,2,2021-01-11_12h20.05.960,configural_featural,2020.2.4,MacIntel,60,1792,1120,,,,,,,,,,,,,,,,,,,,,,,0,-0.163380792,1,Stimuli/f24.png,Stimuli/f24.png,feat_face,f,1,0.70404,,1,5,0,5,0,1,,,,,,,,
,,,,,,,,,,,,,,,,,,,,,,,,,,,HR,1,2,2021-01-11_12h20.05.960,configural_featural,2020.2.4,MacIntel,60,1792,1120,,,,,,,,,,,,,,,,,,,,,,,1,-0.163380792,1,Stimuli/f15.png,Stimuli/f15.png,feat_face,f,1,0.95622,space,1,6,0,6,0,1,1.35924,,,,,,,
,,,,,,,,,,,,,,,,,,,,,,,,,,,HR,1,2,2021-01-11_12h20.05.960,configural_featural,2020.2.4,MacIntel,60,1792,1120,,,,,,,,,,,,,,,,,,,,,,,0,-0.163380792,0,Stimuli/f15.png,Stimuli/f131.png,feat_face,j,1,0.93338,,1,7,0,7,0,1,,,,,,,,
,,,,,,,,,,,,,,,,,,,,,,,,,,,HR,1,2,2021-01-11_12h20.05.960,configural_featural,2020.2.4,MacIntel,60,1792,1120,,,,,,,,,,,,,,,,,,,,,,,0,-0.163380792,1,Stimuli/f24.png,Stimuli/f24.png,feat_face,f,1,0.882145,,1,8,0,8,0,1,,,,,,,,
,,,,,,,,,,,,,,,,,,,,,,,,,,,HR,1,2,2021-01-11_12h20.05.960,configural_featural,2020.2.4,MacIntel,60,1792,1120,,,,,,,,,,,,,,,,,,,,,,,0,-0.163380792,0,Stimuli/f15.png,Stimuli/f24.png,feat_face,j,1,0.83376,,1,9,0,9,0,1,,,,,,,,
,,,,,,,,,,,,,,,,,,,,,,,,,,,HR,1,2,2021-01-11_12h20.05.960,configural_featural,2020.2.4,MacIntel,60,1792,1120,,,,,,,,,,,,,,,,,,,,,,,1,-0.163380792,0,Stimuli/f131.png,Stimuli/f24.png,feat_face,j,1,1.10565,space,1,10,0,10,0,1,0.59958,,,,,,,
,,,,,,,,,,,,,,,,,,,,,,,,,,,HR,1,2,2021-01-11_12h20.05.960,configural_featural,2020.2.4,MacIntel,60,1792,1120,,,,,,,,,,,,,,,,,,,,,,,0,-0.163380792,1,Stimuli/f131.png,Stimuli/f131.png,feat_face,f,1,0.682985,,1,11,0,11,0,1,,,,,,,,
,,,,,,,,,,,,,,,,,,,,,,,,,,,HR,1,2,2021-01-11_12h20.05.960,configural_featural,2020.2.4,MacIntel,60,1792,1120,,,,,,,,,,,,,,,,,,,,,,,0,-0.163380792,1,Stimuli/f142.png,Stimuli/f142.png,feat_face,f,1,0.43153,,1,12,0,12,0,1,,,,,,,,
,,,,,,,,,,,,,,,,,,,,,,,,,,,HR,1,2,2021-01-11_12h20.05.960,configural_featural,2020.2.4,MacIntel,60,1792,1120,,,,,,,,,,,,,,,,,,,,,,,0,-0.163380792,0,Stimuli/f15.png,Stimuli/f131.png,feat_face,j,1,0.548425,space,0,13,0,13,0,1,0.55009,,,,,,,
,,,,,,,,,,,,,,,,,,,,,,,,,,,HR,1,2,2021-01-11_12h20.05.960,configural_featural,2020.2.4,MacIntel,60,1792,1120,,,,,,,,,,,,,,,,,,,,,,,0,-0.163380792,0,Stimuli/f142.png,Stimuli/f131.png,feat_face,j,1,0.850595,,1,14,0,14,0,1,,,,,,,,
,,,,,,,,,,,,,,,,,,,,,,,,,,,HR,1,2,2021-01-11_12h20.05.960,configural_featural,2020.2.4,MacIntel,60,1792,1120,,,,,,,,,,,,,,,,,,,,,,,1,-0.163380792,1,Stimuli/f15.png,Stimuli/f15.png,feat_face,f,1,0.750385,space,1,15,0,15,0,1,0.53892,,,,,,,
,,,,,,,,,,,,,,,,,,,,,,,,,,,HR,1,2,2021-01-11_12h20.05.960,configural_featural,2020.2.4,MacIntel,60,1792,1120,,,,,,,,,,,,,,,,,,,,,,,0,-0.163380792,1,Stimuli/f142.png,Stimuli/f142.png,feat_face,f,1,0.64044,,1,16,0,16,0,1,,,,,,,,
,,,,,,,,,,,,,,,,,,,,,,,,,,,HR,1,2,2021-01-11_12h20.05.960,configural_featural,2020.2.4,MacIntel,60,1792,1120,,,,,,,,,,,,,,,,,,,,,,,0,-0.163380792,0,Stimuli/f15.png,Stimuli/f24.png,feat_face,j,1,0.73358,,1,17,0,17,0,1,,,,,,,,
,,,,,,,,,,,,,,,,,,,,,,,,,,,HR,1,2,2021-01-11_12h20.05.960,configural_featural,2020.2.4,MacIntel,60,1792,1120,,,,,,,,,,,,,,,,,,,,,,,0,-0.163380792,1,Stimuli/f24.png,Stimuli/f24.png,feat_face,f,1,0.63811,,1,18,0,18,0,1,,,,,,,,
,,,,,,,,,,,,,,,,,,,,,,,,,,,HR,1,2,2021-01-11_12h20.05.960,configural_featural,2020.2.4,MacIntel,60,1792,1120,,,,,,,,,,,,,,,,,,,,,,,0,-0.163380792,0,Stimuli/f131.png,Stimuli/f24.png,feat_face,j,1,0.78659,,1,19,0,19,0,1,,,,,,,,
,,,,,,,,,,,,,,,,,,,,,,,,,,,HR,1,2,2021-01-11_12h20.05.960,configural_featural,2020.2.4,MacIntel,60,1792,1120,,,,,,,,,,,,,,,,,,,,,,,1,-0.163380792,0,Stimuli/f15.png,Stimuli/f142.png,feat_face,j,1,0.69945,space,1,20,0,20,0,1,0.58592,,,,,,,
,,,,,,,,,,,,,,,,,,,,,,,,,,,HR,1,2,2021-01-11_12h20.05.960,configural_featural,2020.2.4,MacIntel,60,1792,1120,,,,,,,,,,,,,,,,,,,,,,,0,-0.163380792,1,Stimuli/f15.png,Stimuli/f15.png,feat_face,f,1,0.74816,,1,21,0,21,0,1,,,,,,,,
,,,,,,,,,,,,,,,,,,,,,,,,,,,HR,1,2,2021-01-11_12h20.05.960,configural_featural,2020.2.4,MacIntel,60,1792,1120,,,,,,,,,,,,,,,,,,,,,,,1,-0.163380792,0,Stimuli/f24.png,Stimuli/f142.png,feat_face,j,1,0.516695,space,1,22,0,22,0,1,0.54865,,,,,,,
,,,,,,,,,,,,,,,,,,,,,,,,,,,HR,1,2,2021-01-11_12h20.05.960,configural_featural,2020.2.4,MacIntel,60,1792,1120,,,,,,,,,,,,,,,,,,,,,,,0,-0.163380792,1,Stimuli/f131.png,Stimuli/f131.png,feat_face,f,1,0.61932,,1,23,0,23,0,1,,,,,,,,
,,,,,,,,,,,,,,,,,,,,,,,,,,,HR,1,2,2021-01-11_12h20.05.960,configural_featural,2020.2.4,MacIntel,60,1792,1120,,,,,,,,,,,,,,,,,,,,,,,0,-0.163380792,1,Stimuli/f142.png,Stimuli/f142.png,feat_face,f,1,0.39913,,1,24,0,24,0,1,,,,,,,,
,,,,,,,,,,,,,,,,,,,,,,,,,,,HR,1,2,2021-01-11_12h20.05.960,configural_featural,2020.2.4,MacIntel,60,1792,1120,,,,,,,,,,,,,,,,,,,,,,,0,-0.163380792,1,Stimuli/f15.png,Stimuli/f15.png,feat_face,f,1,0.68651,,1,25,0,25,0,1,,,,,,,,
,,,,,,,,,,,,,,,,,,,,,,,,,,,HR,1,2,2021-01-11_12h20.05.960,configural_featural,2020.2.4,MacIntel,60,1792,1120,,,,,,,,,,,,,,,,,,,,,,,1,-0.163380792,0,Stimuli/f15.png,Stimuli/f142.png,feat_face,j,1,0.53632,space,1,26,0,26,0,1,0.533485,,,,,,,
,,,,,,,,,,,,,,,,,,,,,,,,,,,HR,1,2,2021-01-11_12h20.05.960,configural_featural,2020.2.4,MacIntel,60,1792,1120,,,,,,,,,,,,,,,,,,,,,,,0,-0.163380792,0,Stimuli/f24.png,Stimuli/f131.png,feat_face,j,1,0.6674,,1,27,0,27,0,1,,,,,,,,
,,,,,,,,,,,,,,,,,,,,,,,,,,,HR,1,2,2021-01-11_12h20.05.960,configural_featural,2020.2.4,MacIntel,60,1792,1120,,,,,,,,,,,,,,,,,,,,,,,0,-0.163380792,1,Stimuli/f24.png,Stimuli/f24.png,feat_face,f,1,0.4994,,1,28,0,28,0,1,,,,,,,,
,,,,,,,,,,,,,,,,,,,,,,,,,,,HR,1,2,2021-01-11_12h20.05.960,configural_featural,2020.2.4,MacIntel,60,1792,1120,,,,,,,,,,,,,,,,,,,,,,,1,-0.163380792,0,Stimuli/f142.png,Stimuli/f24.png,feat_face,j,1,0.87139,space,1,29,0,29,0,1,0.73399,,,,,,,
,,,,,,,,,,,,,,,,,,,,,,,,,,,HR,1,2,2021-01-11_12h20.05.960,configural_featural,2020.2.4,MacIntel,60,1792,1120,,,,,,,,,,,,,,,,,,,,,,,0,-0.163380792,0,Stimuli/f24.png,Stimuli/f15.png,feat_face,j,1,0.630245,,1,30,0,30,0,1,,,,,,,,
,,,,,,,,,,,,,,,,,,,,,,,,,,,HR,1,2,2021-01-11_12h20.05.960,configural_featural,2020.2.4,MacIntel,60,1792,1120,,,,,,,,,,,,,,,,,,,,,,,0,-0.163380792,1,Stimuli/f131.png,Stimuli/f131.png,feat_face,f,1,0.650135,,1,31,0,31,0,1,,,,,,,,
,,,,,,,,,,,,,,,,,,,,,,,,,,,HR,1,2,2021-01-11_12h20.05.960,configural_featural,2020.2.4,MacIntel,60,1792,1120,,,,,,,,,,,,,,,,,,,,,,,1,-0.163380792,1,Stimuli/f142.png,Stimuli/f142.png,feat_face,f,1,0.582845,space,1,32,0,32,0,1,0.50039,,,,,,,
,,,,,,,,,,,,,,,,,,,,,,,,,,,HR,1,2,2021-01-11_12h20.05.960,configural_featural,2020.2.4,MacIntel,60,1792,1120,,,,,,,,,,,,,,,,,,,,,,,0,-0.163380792,1,Stimuli/f131.png,Stimuli/f131.png,feat_face,f,1,0.500235,,1,33,0,33,0,1,,,,,,,,
,,,,,,,,,,,,,,,,,,,,,,,,,,,HR,1,2,2021-01-11_12h20.05.960,configural_featural,2020.2.4,MacIntel,60,1792,1120,,,,,,,,,,,,,,,,,,,,,,,0,-0.163380792,0,Stimuli/f131.png,Stimuli/f142.png,feat_face,j,1,0.449885,,1,34,0,34,0,1,,,,,,,,
,,,,,,,,,,,,,,,,,,,,,,,,,,,HR,1,2,2021-01-11_12h20.05.960,configural_featural,2020.2.4,MacIntel,60,1792,1120,,,,,,,,,,,,,,,,,,,,,,,0,-0.163380792,0,Stimuli/f131.png,Stimuli/f142.png,feat_face,j,1,0.76573,,1,35,0,35,0,1,,,,,,,,
,,,,,,,,,,,,,,,,,,,,,,,,,,,HR,1,2,2021-01-11_12h20.05.960,configural_featural,2020.2.4,MacIntel,60,1792,1120,,,,,,,,,,,,,,,,,,,,,,,0,-0.163380792,1,Stimuli/f24.png,Stimuli/f24.png,feat_face,f,1,0.63485,,1,36,0,36,0,1,,,,,,,,
,,,,,,,,,,,,,,,,,,,,,,,,,,,HR,1,2,2021-01-11_12h20.05.960,configural_featural,2020.2.4,MacIntel,60,1792,1120,,,,,,,,,,,,,,,,,,,,,,,1,-0.163380792,1,Stimuli/f15.png,Stimuli/f15.png,feat_face,f,1,0.45016,space,1,37,0,37,0,1,0.6557,,,,,,,
,,,,,,,,,,,,,,,,,,,,,,,,,,,HR,1,2,2021-01-11_12h20.05.960,configural_featural,2020.2.4,MacIntel,60,1792,1120,,,,,,,,,,,,,,,,,,,,,,,0,-0.163380792,1,Stimuli/f24.png,Stimuli/f24.png,feat_face,f,1,0.415525,,1,38,0,38,0,1,,,,,,,,
,,,,,,,,,,,,,,,,,,,,,,,,,,,HR,1,2,2021-01-11_12h20.05.960,configural_featural,2020.2.4,MacIntel,60,1792,1120,,,,,,,,,,,,,,,,,,,,,,,1,-0.163380792,0,Stimuli/f131.png,Stimuli/f15.png,feat_face,j,1,0.470575,space,1,39,0,39,0,1,0.57206,,,,,,,
,,,,,,,,,,,,,,,,,,,,,,,,,,,HR,1,2,2021-01-11_12h20.05.960,configural_featural,2020.2.4,MacIntel,60,1792,1120,,,,,,,,,,,,,,,,,,,,,,,0,-0.163380792,0,Stimuli/f24.png,Stimuli/f15.png,feat_face,j,1,0.518455,,1,40,0,40,0,1,,,,,,,,
,,,,,,,,,,,,,,,,,,,,,,,,,,,HR,1,2,2021-01-11_12h20.05.960,configural_featural,2020.2.4,MacIntel,60,1792,1120,,,,,,,,,,,,,,,,,,,,,,,0,-0.163380792,0,Stimuli/f24.png,Stimuli/f142.png,feat_face,j,1,0.533275,,1,41,0,41,0,1,,,,,,,,
,,,,,,,,,,,,,,,,,,,,,,,,,,,HR,1,2,2021-01-11_12h20.05.960,configural_featural,2020.2.4,MacIntel,60,1792,1120,,,,,,,,,,,,,,,,,,,,,,,0,-0.163380792,0,Stimuli/f24.png,Stimuli/f131.png,feat_face,j,1,0.83373,,1,42,0,42,0,1,,,,,,,,
,,,,,,,,,,,,,,,,,,,,,,,,,,,HR,1,2,2021-01-11_12h20.05.960,configural_featural,2020.2.4,MacIntel,60,1792,1120,,,,,,,,,,,,,,,,,,,,,,,1,-0.163380792,1,Stimuli/f131.png,Stimuli/f131.png,feat_face,f,1,0.489575,space,1,43,0,43,0,1,0.53364,,,,,,,
,,,,,,,,,,,,,,,,,,,,,,,,,,,HR,1,2,2021-01-11_12h20.05.960,configural_featural,2020.2.4,MacIntel,60,1792,1120,,,,,,,,,,,,,,,,,,,,,,,0,-0.163380792,0,Stimuli/f142.png,Stimuli/f24.png,feat_face,j,1,0.400665,,1,44,0,44,0,1,,,,,,,,
,,,,,,,,,,,,,,,,,,,,,,,,,,,HR,1,2,2021-01-11_12h20.05.960,configural_featural,2020.2.4,MacIntel,60,1792,1120,,,,,,,,,,,,,,,,,,,,,,,0,-0.163380792,1,Stimuli/f15.png,Stimuli/f15.png,feat_face,f,1,0.982525,,1,45,0,45,0,1,,,,,,,,
,,,,,,,,,,,,,,,,,,,,,,,,,,,HR,1,2,2021-01-11_12h20.05.960,configural_featural,2020.2.4,MacIntel,60,1792,1120,,,,,,,,,,,,,,,,,,,,,,,0,-0.163380792,1,Stimuli/f142.png,Stimuli/f142.png,feat_face,f,1,0.797335,,1,46,0,46,0,1,,,,,,,,
,,,,,,,,,,,,,,,,,,,,,,,,,,,HR,1,2,2021-01-11_12h20.05.960,configural_featural,2020.2.4,MacIntel,60,1792,1120,,,,,,,,,,,,,,,,,,,,,,,0,-0.163380792,0,Stimuli/f131.png,Stimuli/f15.png,feat_face,j,1,0.420745,,1,47,0,47,0,1,,,,,,,,
,,,,,,,,,,,,,,,,,,,,,,,,,,,HR,1,2,2021-01-11_12h20.05.960,configural_featural,2020.2.4,MacIntel,60,1792,1120,,,,,,,,,,,,,,,,,,,,,,,,,,,,,,,,,,,,,,,,0,2,2,2,1,feat_face,Designs/instructions_face_1234.png
,,,,,,,,,,,,,,,,,,,,,,,,,,,HR,1,2,2021-01-11_12h20.05.960,configural_featural,2020.2.4,MacIntel,60,1792,1120,,,,,,,,,,,,,,,,,,,,,,,0,-0.163380792,1,Stimuli/H6sim0.png,Stimuli/H6sim0.png,feat_haus,f,1,1.933645,,1,0,0,0,0,1,,,,,,,,
,,,,,,,,,,,,,,,,,,,,,,,,,,,HR,1,2,2021-01-11_12h20.05.960,configural_featural,2020.2.4,MacIntel,60,1792,1120,,,,,,,,,,,,,,,,,,,,,,,0,-0.163380792,1,Stimuli/H5sim0.png,Stimuli/H5sim0.png,feat_haus,f,1,0.690155,,1,1,0,1,0,1,,,,,,,,
,,,,,,,,,,,,,,,,,,,,,,,,,,,HR,1,2,2021-01-11_12h20.05.960,configural_featural,2020.2.4,MacIntel,60,1792,1120,,,,,,,,,,,,,,,,,,,,,,,0,-0.163380792,0,Stimuli/H8sim0.png,Stimuli/H6sim0.png,feat_haus,j,1,0.566935,,1,2,0,2,0,1,,,,,,,,
,,,,,,,,,,,,,,,,,,,,,,,,,,,HR,1,2,2021-01-11_12h20.05.960,configural_featural,2020.2.4,MacIntel,60,1792,1120,,,,,,,,,,,,,,,,,,,,,,,1,-0.163380792,0,Stimuli/H7sim0.png,Stimuli/H6sim0.png,feat_haus,j,1,0.78336,space,1,3,0,3,0,1,0.53952,,,,,,,
,,,,,,,,,,,,,,,,,,,,,,,,,,,HR,1,2,2021-01-11_12h20.05.960,configural_featural,2020.2.4,MacIntel,60,1792,1120,,,,,,,,,,,,,,,,,,,,,,,0,-0.163380792,1,Stimuli/H7sim0.png,Stimuli/H7sim0.png,feat_haus,f,1,1.550525,,1,4,0,4,0,1,,,,,,,,
,,,,,,,,,,,,,,,,,,,,,,,,,,,HR,1,2,2021-01-11_12h20.05.960,configural_featural,2020.2.4,MacIntel,60,1792,1120,,,,,,,,,,,,,,,,,,,,,,,0,-0.163380792,0,Stimuli/H6sim0.png,Stimuli/H8sim0.png,feat_haus,j,1,0.922015,,1,5,0,5,0,1,,,,,,,,
,,,,,,,,,,,,,,,,,,,,,,,,,,,HR,1,2,2021-01-11_12h20.05.960,configural_featural,2020.2.4,MacIntel,60,1792,1120,,,,,,,,,,,,,,,,,,,,,,,1,-0.163380792,1,Stimuli/H8sim0.png,Stimuli/H8sim0.png,feat_haus,f,1,0.80001,space,1,6,0,6,0,1,0.434015,,,,,,,
,,,,,,,,,,,,,,,,,,,,,,,,,,,HR,1,2,2021-01-11_12h20.05.960,configural_featural,2020.2.4,MacIntel,60,1792,1120,,,,,,,,,,,,,,,,,,,,,,,0,-0.163380792,0,Stimuli/H5sim0.png,Stimuli/H6sim0.png,feat_haus,j,1,0.65247,,1,7,0,7,0,1,,,,,,,,
,,,,,,,,,,,,,,,,,,,,,,,,,,,HR,1,2,2021-01-11_12h20.05.960,configural_featural,2020.2.4,MacIntel,60,1792,1120,,,,,,,,,,,,,,,,,,,,,,,0,-0.163380792,1,Stimuli/H5sim0.png,Stimuli/H5sim0.png,feat_haus,f,1,1.264875,,1,8,0,8,0,1,,,,,,,,
,,,,,,,,,,,,,,,,,,,,,,,,,,,HR,1,2,2021-01-11_12h20.05.960,configural_featural,2020.2.4,MacIntel,60,1792,1120,,,,,,,,,,,,,,,,,,,,,,,0,-0.163380792,0,Stimuli/H7sim0.png,Stimuli/H8sim0.png,feat_haus,j,1,0.66513,,1,9,0,9,0,1,,,,,,,,
,,,,,,,,,,,,,,,,,,,,,,,,,,,HR,1,2,2021-01-11_12h20.05.960,configural_featural,2020.2.4,MacIntel,60,1792,1120,,,,,,,,,,,,,,,,,,,,,,,1,-0.163380792,0,Stimuli/H7sim0.png,Stimuli/H5sim0.png,feat_haus,f,0,1.015135,space,1,10,0,10,0,1,1.41539,,,,,,,
,,,,,,,,,,,,,,,,,,,,,,,,,,,HR,1,2,2021-01-11_12h20.05.960,configural_featural,2020.2.4,MacIntel,60,1792,1120,,,,,,,,,,,,,,,,,,,,,,,0,-0.163380792,1,Stimuli/H6sim0.png,Stimuli/H6sim0.png,feat_haus,f,1,0.882285,,1,11,0,11,0,1,,,,,,,,
,,,,,,,,,,,,,,,,,,,,,,,,,,,HR,1,2,2021-01-11_12h20.05.960,configural_featural,2020.2.4,MacIntel,60,1792,1120,,,,,,,,,,,,,,,,,,,,,,,0,-0.163380792,1,Stimuli/H7sim0.png,Stimuli/H7sim0.png,feat_haus,f,1,1.464075,,1,12,0,12,0,1,,,,,,,,
,,,,,,,,,,,,,,,,,,,,,,,,,,,HR,1,2,2021-01-11_12h20.05.960,configural_featural,2020.2.4,MacIntel,60,1792,1120,,,,,,,,,,,,,,,,,,,,,,,0,-0.163380792,0,Stimuli/H6sim0.png,Stimuli/H5sim0.png,feat_haus,j,1,0.73205,,1,13,0,13,0,1,,,,,,,,
,,,,,,,,,,,,,,,,,,,,,,,,,,,HR,1,2,2021-01-11_12h20.05.960,configural_featural,2020.2.4,MacIntel,60,1792,1120,,,,,,,,,,,,,,,,,,,,,,,1,-0.163380792,0,Stimuli/H7sim0.png,Stimuli/H5sim0.png,feat_haus,j,1,0.79041,space,1,14,0,14,0,1,0.534325,,,,,,,
,,,,,,,,,,,,,,,,,,,,,,,,,,,HR,1,2,2021-01-11_12h20.05.960,configural_featural,2020.2.4,MacIntel,60,1792,1120,,,,,,,,,,,,,,,,,,,,,,,0,-0.163380792,1,Stimuli/H8sim0.png,Stimuli/H8sim0.png,feat_haus,f,1,0.63936,,1,15,0,15,0,1,,,,,,,,
,,,,,,,,,,,,,,,,,,,,,,,,,,,HR,1,2,2021-01-11_12h20.05.960,configural_featural,2020.2.4,MacIntel,60,1792,1120,,,,,,,,,,,,,,,,,,,,,,,0,-0.163380792,1,Stimuli/H8sim0.png,Stimuli/H8sim0.png,feat_haus,f,1,0.94935,,1,16,0,16,0,1,,,,,,,,
,,,,,,,,,,,,,,,,,,,,,,,,,,,HR,1,2,2021-01-11_12h20.05.960,configural_featural,2020.2.4,MacIntel,60,1792,1120,,,,,,,,,,,,,,,,,,,,,,,0,-0.163380792,0,Stimuli/H5sim0.png,Stimuli/H6sim0.png,feat_haus,j,1,0.61582,,1,17,0,17,0,1,,,,,,,,
,,,,,,,,,,,,,,,,,,,,,,,,,,,HR,1,2,2021-01-11_12h20.05.960,configural_featural,2020.2.4,MacIntel,60,1792,1120,,,,,,,,,,,,,,,,,,,,,,,0,-0.163380792,1,Stimuli/H6sim0.png,Stimuli/H6sim0.png,feat_haus,f,1,0.655875,,1,18,0,18,0,1,,,,,,,,
,,,,,,,,,,,,,,,,,,,,,,,,,,,HR,1,2,2021-01-11_12h20.05.960,configural_featural,2020.2.4,MacIntel,60,1792,1120,,,,,,,,,,,,,,,,,,,,,,,1,-0.163380792,1,Stimuli/H5sim0.png,Stimuli/H5sim0.png,feat_haus,j,0,1.08865,space,1,19,0,19,0,1,0.573785,,,,,,,
,,,,,,,,,,,,,,,,,,,,,,,,,,,HR,1,2,2021-01-11_12h20.05.960,configural_featural,2020.2.4,MacIntel,60,1792,1120,,,,,,,,,,,,,,,,,,,,,,,0,-0.163380792,0,Stimuli/H6sim0.png,Stimuli/H5sim0.png,feat_haus,j,1,0.773475,,1,20,0,20,0,1,,,,,,,,
,,,,,,,,,,,,,,,,,,,,,,,,,,,HR,1,2,2021-01-11_12h20.05.960,configural_featural,2020.2.4,MacIntel,60,1792,1120,,,,,,,,,,,,,,,,,,,,,,,0,-0.163380792,1,Stimuli/H7sim0.png,Stimuli/H7sim0.png,feat_haus,f,1,0.716795,,1,21,0,21,0,1,,,,,,,,
,,,,,,,,,,,,,,,,,,,,,,,,,,,HR,1,2,2021-01-11_12h20.05.960,configural_featural,2020.2.4,MacIntel,60,1792,1120,,,,,,,,,,,,,,,,,,,,,,,1,-0.163380792,0,Stimuli/H6sim0.png,Stimuli/H8sim0.png,feat_haus,j,1,0.79776,space,1,22,0,22,0,1,0.49969,,,,,,,
,,,,,,,,,,,,,,,,,,,,,,,,,,,HR,1,2,2021-01-11_12h20.05.960,configural_featural,2020.2.4,MacIntel,60,1792,1120,,,,,,,,,,,,,,,,,,,,,,,0,-0.163380792,0,Stimuli/H8sim0.png,Stimuli/H5sim0.png,feat_haus,j,1,0.69757,,1,23,0,23,0,1,,,,,,,,
,,,,,,,,,,,,,,,,,,,,,,,,,,,HR,1,2,2021-01-11_12h20.05.960,configural_featural,2020.2.4,MacIntel,60,1792,1120,,,,,,,,,,,,,,,,,,,,,,,0,-0.163380792,1,Stimuli/H5sim0.png,Stimuli/H5sim0.png,feat_haus,f,1,0.700075,,1,24,0,24,0,1,,,,,,,,
,,,,,,,,,,,,,,,,,,,,,,,,,,,HR,1,2,2021-01-11_12h20.05.960,configural_featural,2020.2.4,MacIntel,60,1792,1120,,,,,,,,,,,,,,,,,,,,,,,1,-0.163380792,1,Stimuli/H7sim0.png,Stimuli/H7sim0.png,feat_haus,f,1,0.73246,space,1,25,0,25,0,1,0.6505,,,,,,,
,,,,,,,,,,,,,,,,,,,,,,,,,,,HR,1,2,2021-01-11_12h20.05.960,configural_featural,2020.2.4,MacIntel,60,1792,1120,,,,,,,,,,,,,,,,,,,,,,,0,-0.163380792,0,Stimuli/H6sim0.png,Stimuli/H7sim0.png,feat_haus,j,1,0.615855,,1,26,0,26,0,1,,,,,,,,
,,,,,,,,,,,,,,,,,,,,,,,,,,,HR,1,2,2021-01-11_12h20.05.960,configural_featural,2020.2.4,MacIntel,60,1792,1120,,,,,,,,,,,,,,,,,,,,,,,0,-0.163380792,0,Stimuli/H8sim0.png,Stimuli/H6sim0.png,feat_haus,j,1,0.863325,,1,27,0,27,0,1,,,,,,,,
,,,,,,,,,,,,,,,,,,,,,,,,,,,HR,1,2,2021-01-11_12h20.05.960,configural_featural,2020.2.4,MacIntel,60,1792,1120,,,,,,,,,,,,,,,,,,,,,,,0,-0.163380792,1,Stimuli/H6sim0.png,Stimuli/H6sim0.png,feat_haus,f,1,0.689145,,1,28,0,28,0,1,,,,,,,,
,,,,,,,,,,,,,,,,,,,,,,,,,,,HR,1,2,2021-01-11_12h20.05.960,configural_featural,2020.2.4,MacIntel,60,1792,1120,,,,,,,,,,,,,,,,,,,,,,,1,-0.163380792,0,Stimuli/H7sim0.png,Stimuli/H6sim0.png,feat_haus,j,1,0.682515,space,1,29,0,29,0,1,0.45461,,,,,,,
,,,,,,,,,,,,,,,,,,,,,,,,,,,HR,1,2,2021-01-11_12h20.05.960,configural_featural,2020.2.4,MacIntel,60,1792,1120,,,,,,,,,,,,,,,,,,,,,,,0,-0.163380792,1,Stimuli/H8sim0.png,Stimuli/H8sim0.png,feat_haus,f,1,0.5835,,1,30,0,30,0,1,,,,,,,,
,,,,,,,,,,,,,,,,,,,,,,,,,,,HR,1,2,2021-01-11_12h20.05.960,configural_featural,2020.2.4,MacIntel,60,1792,1120,,,,,,,,,,,,,,,,,,,,,,,0,-0.163380792,1,Stimuli/H7sim0.png,Stimuli/H7sim0.png,feat_haus,f,1,0.7383,,1,31,0,31,0,1,,,,,,,,
,,,,,,,,,,,,,,,,,,,,,,,,,,,HR,1,2,2021-01-11_12h20.05.960,configural_featural,2020.2.4,MacIntel,60,1792,1120,,,,,,,,,,,,,,,,,,,,,,,1,-0.163380792,0,Stimuli/H7sim0.png,Stimuli/H8sim0.png,feat_haus,j,1,0.617505,space,1,32,0,32,0,1,0.51793,,,,,,,
,,,,,,,,,,,,,,,,,,,,,,,,,,,HR,1,2,2021-01-11_12h20.05.960,configural_featural,2020.2.4,MacIntel,60,1792,1120,,,,,,,,,,,,,,,,,,,,,,,0,-0.163380792,0,Stimuli/H8sim0.png,Stimuli/H7sim0.png,feat_haus,j,1,0.816245,,1,33,0,33,0,1,,,,,,,,
,,,,,,,,,,,,,,,,,,,,,,,,,,,HR,1,2,2021-01-11_12h20.05.960,configural_featural,2020.2.4,MacIntel,60,1792,1120,,,,,,,,,,,,,,,,,,,,,,,0,-0.163380792,1,Stimuli/H8sim0.png,Stimuli/H8sim0.png,feat_haus,f,1,0.567015,,1,34,0,34,0,1,,,,,,,,
,,,,,,,,,,,,,,,,,,,,,,,,,,,HR,1,2,2021-01-11_12h20.05.960,configural_featural,2020.2.4,MacIntel,60,1792,1120,,,,,,,,,,,,,,,,,,,,,,,0,-0.163380792,0,Stimuli/H8sim0.png,Stimuli/H7sim0.png,feat_haus,j,1,0.535435,,1,35,0,35,0,1,,,,,,,,
,,,,,,,,,,,,,,,,,,,,,,,,,,,HR,1,2,2021-01-11_12h20.05.960,configural_featural,2020.2.4,MacIntel,60,1792,1120,,,,,,,,,,,,,,,,,,,,,,,0,-0.163380792,0,Stimuli/H8sim0.png,Stimuli/H5sim0.png,feat_haus,j,1,0.56938,,1,36,0,36,0,1,,,,,,,,
,,,,,,,,,,,,,,,,,,,,,,,,,,,HR,1,2,2021-01-11_12h20.05.960,configural_featural,2020.2.4,MacIntel,60,1792,1120,,,,,,,,,,,,,,,,,,,,,,,1,-0.163380792,1,Stimuli/H6sim0.png,Stimuli/H6sim0.png,feat_haus,j,0,0.88974,space,1,37,0,37,0,1,0.688245,,,,,,,
,,,,,,,,,,,,,,,,,,,,,,,,,,,HR,1,2,2021-01-11_12h20.05.960,configural_featural,2020.2.4,MacIntel,60,1792,1120,,,,,,,,,,,,,,,,,,,,,,,0,-0.163380792,0,Stimuli/H5sim0.png,Stimuli/H7sim0.png,feat_haus,j,1,0.488825,,1,38,0,38,0,1,,,,,,,,
,,,,,,,,,,,,,,,,,,,,,,,,,,,HR,1,2,2021-01-11_12h20.05.960,configural_featural,2020.2.4,MacIntel,60,1792,1120,,,,,,,,,,,,,,,,,,,,,,,1,-0.163380792,0,Stimuli/H5sim0.png,Stimuli/H7sim0.png,feat_haus,j,1,0.53546,space,1,39,0,39,0,1,0.83337,,,,,,,
,,,,,,,,,,,,,,,,,,,,,,,,,,,HR,1,2,2021-01-11_12h20.05.960,configural_featural,2020.2.4,MacIntel,60,1792,1120,,,,,,,,,,,,,,,,,,,,,,,0,-0.163380792,1,Stimuli/H5sim0.png,Stimuli/H5sim0.png,feat_haus,f,1,0.85553,,1,40,0,40,0,1,,,,,,,,
,,,,,,,,,,,,,,,,,,,,,,,,,,,HR,1,2,2021-01-11_12h20.05.960,configural_featural,2020.2.4,MacIntel,60,1792,1120,,,,,,,,,,,,,,,,,,,,,,,0,-0.163380792,1,Stimuli/H7sim0.png,Stimuli/H7sim0.png,feat_haus,f,1,0.91448,,1,41,0,41,0,1,,,,,,,,
,,,,,,,,,,,,,,,,,,,,,,,,,,,HR,1,2,2021-01-11_12h20.05.960,configural_featural,2020.2.4,MacIntel,60,1792,1120,,,,,,,,,,,,,,,,,,,,,,,0,-0.163380792,1,Stimuli/H6sim0.png,Stimuli/H6sim0.png,feat_haus,f,1,0.822975,,1,42,0,42,0,1,,,,,,,,
,,,,,,,,,,,,,,,,,,,,,,,,,,,HR,1,2,2021-01-11_12h20.05.960,configural_featural,2020.2.4,MacIntel,60,1792,1120,,,,,,,,,,,,,,,,,,,,,,,1,-0.163380792,0,Stimuli/H5sim0.png,Stimuli/H8sim0.png,feat_haus,j,1,0.63397,space,1,43,0,43,0,1,0.765205,,,,,,,
,,,,,,,,,,,,,,,,,,,,,,,,,,,HR,1,2,2021-01-11_12h20.05.960,configural_featural,2020.2.4,MacIntel,60,1792,1120,,,,,,,,,,,,,,,,,,,,,,,0,-0.163380792,1,Stimuli/H8sim0.png,Stimuli/H8sim0.png,feat_haus,f,1,0.58745,,1,44,0,44,0,1,,,,,,,,
,,,,,,,,,,,,,,,,,,,,,,,,,,,HR,1,2,2021-01-11_12h20.05.960,configural_featural,2020.2.4,MacIntel,60,1792,1120,,,,,,,,,,,,,,,,,,,,,,,0,-0.163380792,0,Stimuli/H6sim0.png,Stimuli/H7sim0.png,feat_haus,j,1,0.684105,,1,45,0,45,0,1,,,,,,,,
,,,,,,,,,,,,,,,,,,,,,,,,,,,HR,1,2,2021-01-11_12h20.05.960,configural_featural,2020.2.4,MacIntel,60,1792,1120,,,,,,,,,,,,,,,,,,,,,,,0,-0.163380792,0,Stimuli/H5sim0.png,Stimuli/H8sim0.png,feat_haus,j,1,0.583235,,1,46,0,46,0,1,,,,,,,,
,,,,,,,,,,,,,,,,,,,,,,,,,,,HR,1,2,2021-01-11_12h20.05.960,configural_featural,2020.2.4,MacIntel,60,1792,1120,,,,,,,,,,,,,,,,,,,,,,,0,-0.163380792,1,Stimuli/H5sim0.png,Stimuli/H5sim0.png,feat_haus,f,1,0.669055,,1,47,0,47,0,1,,,,,,,,
,,,,,,,,,,,,,,,,,,,,,,,,,,,HR,1,2,2021-01-11_12h20.05.960,configural_featural,2020.2.4,MacIntel,60,1792,1120,,,,,,,,,,,,,,,,,,,,,,,,,,,,,,,,,,,,,,,,0,3,3,3,1,feat_haus,Designs/instructions_haus_1234.png
,,,,,,,,,,,,,,,,,,,,,,,,,,,HR,1,2,2021-01-11_12h20.05.960,configural_featural,2020.2.4,MacIntel,60,1792,1120,,,,,,,,,,,,,,,,,,,,,,,0,-0.163380792,1,Stimuli/eomu.png,Stimuli/eomu.png,conf_face,j,0,1.3196,,1,0,0,0,0,1,,,,,,,,
,,,,,,,,,,,,,,,,,,,,,,,,,,,HR,1,2,2021-01-11_12h20.05.960,configural_featural,2020.2.4,MacIntel,60,1792,1120,,,,,,,,,,,,,,,,,,,,,,,0,-0.163380792,1,Stimuli/edmd.png,Stimuli/edmd.png,conf_face,f,1,1.48378,,1,1,0,1,0,1,,,,,,,,
,,,,,,,,,,,,,,,,,,,,,,,,,,,HR,1,2,2021-01-11_12h20.05.960,configural_featural,2020.2.4,MacIntel,60,1792,1120,,,,,,,,,,,,,,,,,,,,,,,0,-0.163380792,0,Stimuli/eomu.png,Stimuli/eumu.png,conf_face,j,1,0.867405,,1,2,0,2,0,1,,,,,,,,
,,,,,,,,,,,,,,,,,,,,,,,,,,,HR,1,2,2021-01-11_12h20.05.960,configural_featural,2020.2.4,MacIntel,60,1792,1120,,,,,,,,,,,,,,,,,,,,,,,0,-0.163380792,1,Stimuli/eimd.png,Stimuli/eimd.png,conf_face,j,0,1.31448,,1,3,0,3,0,1,,,,,,,,
,,,,,,,,,,,,,,,,,,,,,,,,,,,HR,1,2,2021-01-11_12h20.05.960,configural_featural,2020.2.4,MacIntel,60,1792,1120,,,,,,,,,,,,,,,,,,,,,,,1,-0.163380792,0,Stimuli/eumu.png,Stimuli/eomu.png,conf_face,j,1,0.752775,space,1,4,0,4,0,1,0.64026,,,,,,,
,,,,,,,,,,,,,,,,,,,,,,,,,,,HR,1,2,2021-01-11_12h20.05.960,configural_featural,2020.2.4,MacIntel,60,1792,1120,,,,,,,,,,,,,,,,,,,,,,,0,-0.163380792,0,Stimuli/eumu.png,Stimuli/edmd.png,conf_face,j,1,0.59966,,1,5,0,5,0,1,,,,,,,,
,,,,,,,,,,,,,,,,,,,,,,,,,,,HR,1,2,2021-01-11_12h20.05.960,configural_featural,2020.2.4,MacIntel,60,1792,1120,,,,,,,,,,,,,,,,,,,,,,,0,-0.163380792,1,Stimuli/eumu.png,Stimuli/eumu.png,conf_face,f,1,1.46674,,1,6,0,6,0,1,,,,,,,,
,,,,,,,,,,,,,,,,,,,,,,,,,,,HR,1,2,2021-01-11_12h20.05.960,configural_featural,2020.2.4,MacIntel,60,1792,1120,,,,,,,,,,,,,,,,,,,,,,,0,-0.163380792,0,Stimuli/edmd.png,Stimuli/eumu.png,conf_face,j,1,0.70253,,1,7,0,7,0,1,,,,,,,,
,,,,,,,,,,,,,,,,,,,,,,,,,,,HR,1,2,2021-01-11_12h20.05.960,configural_featural,2020.2.4,MacIntel,60,1792,1120,,,,,,,,,,,,,,,,,,,,,,,1,-0.163380792,0,Stimuli/edmd.png,Stimuli/eimd.png,conf_face,j,1,0.65545,space,1,8,0,8,0,1,0.48233,,,,,,,
,,,,,,,,,,,,,,,,,,,,,,,,,,,HR,1,2,2021-01-11_12h20.05.960,configural_featural,2020.2.4,MacIntel,60,1792,1120,,,,,,,,,,,,,,,,,,,,,,,0,-0.163380792,1,Stimuli/eomu.png,Stimuli/eomu.png,conf_face,f,1,0.91634,,1,9,0,9,0,1,,,,,,,,
,,,,,,,,,,,,,,,,,,,,,,,,,,,HR,1,2,2021-01-11_12h20.05.960,configural_featural,2020.2.4,MacIntel,60,1792,1120,,,,,,,,,,,,,,,,,,,,,,,1,-0.163380792,1,Stimuli/eumu.png,Stimuli/eumu.png,conf_face,f,1,1.18415,space,1,10,0,10,0,1,0.74854,,,,,,,
,,,,,,,,,,,,,,,,,,,,,,,,,,,HR,1,2,2021-01-11_12h20.05.960,configural_featural,2020.2.4,MacIntel,60,1792,1120,,,,,,,,,,,,,,,,,,,,,,,0,-0.163380792,0,Stimuli/eomu.png,Stimuli/eimd.png,conf_face,j,1,0.70219,,1,11,0,11,0,1,,,,,,,,
,,,,,,,,,,,,,,,,,,,,,,,,,,,HR,1,2,2021-01-11_12h20.05.960,configural_featural,2020.2.4,MacIntel,60,1792,1120,,,,,,,,,,,,,,,,,,,,,,,0,-0.163380792,0,Stimuli/eimd.png,Stimuli/eomu.png,conf_face,j,1,0.58171,,1,12,0,12,0,1,,,,,,,,
,,,,,,,,,,,,,,,,,,,,,,,,,,,HR,1,2,2021-01-11_12h20.05.960,configural_featural,2020.2.4,MacIntel,60,1792,1120,,,,,,,,,,,,,,,,,,,,,,,0,-0.163380792,0,Stimuli/eimd.png,Stimuli/edmd.png,conf_face,j,1,0.782905,,1,13,0,13,0,1,,,,,,,,
,,,,,,,,,,,,,,,,,,,,,,,,,,,HR,1,2,2021-01-11_12h20.05.960,configural_featural,2020.2.4,MacIntel,60,1792,1120,,,,,,,,,,,,,,,,,,,,,,,0,-0.163380792,1,Stimuli/eimd.png,Stimuli/eimd.png,conf_face,f,1,0.837705,,1,14,0,14,0,1,,,,,,,,
,,,,,,,,,,,,,,,,,,,,,,,,,,,HR,1,2,2021-01-11_12h20.05.960,configural_featural,2020.2.4,MacIntel,60,1792,1120,,,,,,,,,,,,,,,,,,,,,,,1,-0.163380792,1,Stimuli/edmd.png,Stimuli/edmd.png,conf_face,f,1,0.83168,space,1,15,0,15,0,1,0.516685,,,,,,,
,,,,,,,,,,,,,,,,,,,,,,,,,,,HR,1,2,2021-01-11_12h20.05.960,configural_featural,2020.2.4,MacIntel,60,1792,1120,,,,,,,,,,,,,,,,,,,,,,,0,-0.163380792,0,Stimuli/eimd.png,Stimuli/eumu.png,conf_face,j,1,0.833735,,1,16,0,16,0,1,,,,,,,,
,,,,,,,,,,,,,,,,,,,,,,,,,,,HR,1,2,2021-01-11_12h20.05.960,configural_featural,2020.2.4,MacIntel,60,1792,1120,,,,,,,,,,,,,,,,,,,,,,,0,-0.163380792,1,Stimuli/eimd.png,Stimuli/eimd.png,conf_face,f,1,0.96789,,1,17,0,17,0,1,,,,,,,,
,,,,,,,,,,,,,,,,,,,,,,,,,,,HR,1,2,2021-01-11_12h20.05.960,configural_featural,2020.2.4,MacIntel,60,1792,1120,,,,,,,,,,,,,,,,,,,,,,,0,-0.163380792,0,Stimuli/eimd.png,Stimuli/eomu.png,conf_face,j,1,0.502835,,1,18,0,18,0,1,,,,,,,,
,,,,,,,,,,,,,,,,,,,,,,,,,,,HR,1,2,2021-01-11_12h20.05.960,configural_featural,2020.2.4,MacIntel,60,1792,1120,,,,,,,,,,,,,,,,,,,,,,,0,-0.163380792,1,Stimuli/edmd.png,Stimuli/edmd.png,conf_face,f,1,0.83328,,1,19,0,19,0,1,,,,,,,,
,,,,,,,,,,,,,,,,,,,,,,,,,,,HR,1,2,2021-01-11_12h20.05.960,configural_featural,2020.2.4,MacIntel,60,1792,1120,,,,,,,,,,,,,,,,,,,,,,,1,-0.163380792,1,Stimuli/eumu.png,Stimuli/eumu.png,conf_face,f,1,0.76682,space,1,20,0,20,0,1,0.54057,,,,,,,
,,,,,,,,,,,,,,,,,,,,,,,,,,,HR,1,2,2021-01-11_12h20.05.960,configural_featural,2020.2.4,MacIntel,60,1792,1120,,,,,,,,,,,,,,,,,,,,,,,0,-0.163380792,0,Stimuli/eumu.png,Stimuli/eimd.png,conf_face,f,0,0.95072,,1,21,0,21,0,1,,,,,,,,
,,,,,,,,,,,,,,,,,,,,,,,,,,,HR,1,2,2021-01-11_12h20.05.960,configural_featural,2020.2.4,MacIntel,60,1792,1120,,,,,,,,,,,,,,,,,,,,,,,0,-0.163380792,0,Stimuli/edmd.png,Stimuli/eumu.png,conf_face,j,1,0.91531,,1,22,0,22,0,1,,,,,,,,
,,,,,,,,,,,,,,,,,,,,,,,,,,,HR,1,2,2021-01-11_12h20.05.960,configural_featural,2020.2.4,MacIntel,60,1792,1120,,,,,,,,,,,,,,,,,,,,,,,0,-0.163380792,1,Stimuli/eomu.png,Stimuli/eomu.png,conf_face,f,1,1.08102,,1,23,0,23,0,1,,,,,,,,
,,,,,,,,,,,,,,,,,,,,,,,,,,,HR,1,2,2021-01-11_12h20.05.960,configural_featural,2020.2.4,MacIntel,60,1792,1120,,,,,,,,,,,,,,,,,,,,,,,1,-0.163380792,0,Stimuli/eumu.png,Stimuli/edmd.png,conf_face,j,1,0.566455,space,1,24,0,24,0,1,0.566915,,,,,,,
,,,,,,,,,,,,,,,,,,,,,,,,,,,HR,1,2,2021-01-11_12h20.05.960,configural_featural,2020.2.4,MacIntel,60,1792,1120,,,,,,,,,,,,,,,,,,,,,,,0,-0.163380792,1,Stimuli/eomu.png,Stimuli/eomu.png,conf_face,f,1,0.73692,,1,25,0,25,0,1,,,,,,,,
,,,,,,,,,,,,,,,,,,,,,,,,,,,HR,1,2,2021-01-11_12h20.05.960,configural_featural,2020.2.4,MacIntel,60,1792,1120,,,,,,,,,,,,,,,,,,,,,,,0,-0.163380792,0,Stimuli/eomu.png,Stimuli/eumu.png,conf_face,j,1,0.934885,,1,26,0,26,0,1,,,,,,,,
,,,,,,,,,,,,,,,,,,,,,,,,,,,HR,1,2,2021-01-11_12h20.05.960,configural_featural,2020.2.4,MacIntel,60,1792,1120,,,,,,,,,,,,,,,,,,,,,,,1,-0.163380792,0,Stimuli/edmd.png,Stimuli/eimd.png,conf_face,j,1,0.76456,space,1,27,0,27,0,1,0.651065,,,,,,,
,,,,,,,,,,,,,,,,,,,,,,,,,,,HR,1,2,2021-01-11_12h20.05.960,configural_featural,2020.2.4,MacIntel,60,1792,1120,,,,,,,,,,,,,,,,,,,,,,,0,-0.163380792,1,Stimuli/eumu.png,Stimuli/eumu.png,conf_face,f,1,0.564215,,1,28,0,28,0,1,,,,,,,,
,,,,,,,,,,,,,,,,,,,,,,,,,,,HR,1,2,2021-01-11_12h20.05.960,configural_featural,2020.2.4,MacIntel,60,1792,1120,,,,,,,,,,,,,,,,,,,,,,,0,-0.163380792,1,Stimuli/edmd.png,Stimuli/edmd.png,conf_face,f,1,0.71398,,1,29,0,29,0,1,,,,,,,,
,,,,,,,,,,,,,,,,,,,,,,,,,,,HR,1,2,2021-01-11_12h20.05.960,configural_featural,2020.2.4,MacIntel,60,1792,1120,,,,,,,,,,,,,,,,,,,,,,,0,-0.163380792,1,Stimuli/eimd.png,Stimuli/eimd.png,conf_face,f,1,0.55297,,1,30,0,30,0,1,,,,,,,,
,,,,,,,,,,,,,,,,,,,,,,,,,,,HR,1,2,2021-01-11_12h20.05.960,configural_featural,2020.2.4,MacIntel,60,1792,1120,,,,,,,,,,,,,,,,,,,,,,,1,-0.163380792,0,Stimuli/edmd.png,Stimuli/eomu.png,conf_face,j,1,0.651715,space,1,31,0,31,0,1,0.50401,,,,,,,
,,,,,,,,,,,,,,,,,,,,,,,,,,,HR,1,2,2021-01-11_12h20.05.960,configural_featural,2020.2.4,MacIntel,60,1792,1120,,,,,,,,,,,,,,,,,,,,,,,0,-0.163380792,1,Stimuli/edmd.png,Stimuli/edmd.png,conf_face,f,1,0.615625,,1,32,0,32,0,1,,,,,,,,
,,,,,,,,,,,,,,,,,,,,,,,,,,,HR,1,2,2021-01-11_12h20.05.960,configural_featural,2020.2.4,MacIntel,60,1792,1120,,,,,,,,,,,,,,,,,,,,,,,0,-0.163380792,1,Stimuli/eumu.png,Stimuli/eumu.png,conf_face,f,1,0.7347,,1,33,0,33,0,1,,,,,,,,
,,,,,,,,,,,,,,,,,,,,,,,,,,,HR,1,2,2021-01-11_12h20.05.960,configural_featural,2020.2.4,MacIntel,60,1792,1120,,,,,,,,,,,,,,,,,,,,,,,1,-0.163380792,0,Stimuli/edmd.png,Stimuli/eomu.png,conf_face,j,1,0.616775,space,1,34,0,34,0,1,0.523655,,,,,,,
,,,,,,,,,,,,,,,,,,,,,,,,,,,HR,1,2,2021-01-11_12h20.05.960,configural_featural,2020.2.4,MacIntel,60,1792,1120,,,,,,,,,,,,,,,,,,,,,,,0,-0.163380792,0,Stimuli/eimd.png,Stimuli/eumu.png,conf_face,j,1,1.08291,,1,35,0,35,0,1,,,,,,,,
,,,,,,,,,,,,,,,,,,,,,,,,,,,HR,1,2,2021-01-11_12h20.05.960,configural_featural,2020.2.4,MacIntel,60,1792,1120,,,,,,,,,,,,,,,,,,,,,,,1,-0.163380792,0,Stimuli/eumu.png,Stimuli/eomu.png,conf_face,j,1,0.54818,space,1,36,0,36,0,1,0.654065,,,,,,,
,,,,,,,,,,,,,,,,,,,,,,,,,,,HR,1,2,2021-01-11_12h20.05.960,configural_featural,2020.2.4,MacIntel,60,1792,1120,,,,,,,,,,,,,,,,,,,,,,,0,-0.163380792,0,Stimuli/eomu.png,Stimuli/eimd.png,conf_face,j,1,0.70061,,1,37,0,37,0,1,,,,,,,,
,,,,,,,,,,,,,,,,,,,,,,,,,,,HR,1,2,2021-01-11_12h20.05.960,configural_featural,2020.2.4,MacIntel,60,1792,1120,,,,,,,,,,,,,,,,,,,,,,,0,-0.163380792,1,Stimuli/eimd.png,Stimuli/eimd.png,conf_face,f,1,1.083125,,1,38,0,38,0,1,,,,,,,,
,,,,,,,,,,,,,,,,,,,,,,,,,,,HR,1,2,2021-01-11_12h20.05.960,configural_featural,2020.2.4,MacIntel,60,1792,1120,,,,,,,,,,,,,,,,,,,,,,,0,-0.163380792,1,Stimuli/eomu.png,Stimuli/eomu.png,conf_face,f,1,1.0883,,1,39,0,39,0,1,,,,,,,,
,,,,,,,,,,,,,,,,,,,,,,,,,,,HR,1,2,2021-01-11_12h20.05.960,configural_featural,2020.2.4,MacIntel,60,1792,1120,,,,,,,,,,,,,,,,,,,,,,,0,-0.163380792,0,Stimuli/eimd.png,Stimuli/edmd.png,conf_face,j,1,0.499455,,1,40,0,40,0,1,,,,,,,,
,,,,,,,,,,,,,,,,,,,,,,,,,,,HR,1,2,2021-01-11_12h20.05.960,configural_featural,2020.2.4,MacIntel,60,1792,1120,,,,,,,,,,,,,,,,,,,,,,,1,-0.163380792,1,Stimuli/eimd.png,Stimuli/eimd.png,conf_face,f,1,0.81546,space,1,41,0,41,0,1,0.614655,,,,,,,
,,,,,,,,,,,,,,,,,,,,,,,,,,,HR,1,2,2021-01-11_12h20.05.960,configural_featural,2020.2.4,MacIntel,60,1792,1120,,,,,,,,,,,,,,,,,,,,,,,0,-0.163380792,0,Stimuli/eomu.png,Stimuli/edmd.png,conf_face,j,1,0.485775,,1,42,0,42,0,1,,,,,,,,
,,,,,,,,,,,,,,,,,,,,,,,,,,,HR,1,2,2021-01-11_12h20.05.960,configural_featural,2020.2.4,MacIntel,60,1792,1120,,,,,,,,,,,,,,,,,,,,,,,0,-0.163380792,0,Stimuli/eumu.png,Stimuli/eimd.png,conf_face,j,1,0.599065,,1,43,0,43,0,1,,,,,,,,
,,,,,,,,,,,,,,,,,,,,,,,,,,,HR,1,2,2021-01-11_12h20.05.960,configural_featural,2020.2.4,MacIntel,60,1792,1120,,,,,,,,,,,,,,,,,,,,,,,0,-0.163380792,1,Stimuli/eumu.png,Stimuli/eumu.png,conf_face,f,1,0.58766,,1,44,0,44,0,1,,,,,,,,
,,,,,,,,,,,,,,,,,,,,,,,,,,,HR,1,2,2021-01-11_12h20.05.960,configural_featural,2020.2.4,MacIntel,60,1792,1120,,,,,,,,,,,,,,,,,,,,,,,1,-0.163380792,1,Stimuli/edmd.png,Stimuli/edmd.png,conf_face,f,1,0.49869,space,1,45,0,45,0,1,0.531405,,,,,,,
,,,,,,,,,,,,,,,,,,,,,,,,,,,HR,1,2,2021-01-11_12h20.05.960,configural_featural,2020.2.4,MacIntel,60,1792,1120,,,,,,,,,,,,,,,,,,,,,,,0,-0.163380792,0,Stimuli/eomu.png,Stimuli/edmd.png,conf_face,j,1,0.45129,,1,46,0,46,0,1,,,,,,,,
,,,,,,,,,,,,,,,,,,,,,,,,,,,HR,1,2,2021-01-11_12h20.05.960,configural_featural,2020.2.4,MacIntel,60,1792,1120,,,,,,,,,,,,,,,,,,,,,,,0,-0.163380792,1,Stimuli/eomu.png,Stimuli/eomu.png,conf_face,f,1,1.534375,,1,47,0,47,0,1,,,,,,,,
,,,,,,,,,,,,,,,,,,,,,,,,,,,HR,1,2,2021-01-11_12h20.05.960,configural_featural,2020.2.4,MacIntel,60,1792,1120,,,,,,,,,,,,,,,,,,,,,,,,,,,,,,,,,,,,,,,,1,0,4,0,1,conf_face,Designs/instructions_face_1234.png
,,,,,,,,,,,,,,,,,,,,,,,,,,,HR,1,2,2021-01-11_12h20.05.960,configural_featural,2020.2.4,MacIntel,60,1792,1120,,,,,,,,,,,,,,,,,,,,,,,0,0.163380792,0,Stimuli/H-8sim2.png,Stimuli/H-8sim1.png,conf_haus,f,0,2.201905,,1,0,0,0,0,1,,,,,,,,
,,,,,,,,,,,,,,,,,,,,,,,,,,,HR,1,2,2021-01-11_12h20.05.960,configural_featural,2020.2.4,MacIntel,60,1792,1120,,,,,,,,,,,,,,,,,,,,,,,0,0.163380792,0,Stimuli/H-8sim0.png,Stimuli/H-8sim3.png,conf_haus,j,1,1.24113,,1,1,0,1,0,1,,,,,,,,
,,,,,,,,,,,,,,,,,,,,,,,,,,,HR,1,2,2021-01-11_12h20.05.960,configural_featural,2020.2.4,MacIntel,60,1792,1120,,,,,,,,,,,,,,,,,,,,,,,0,0.163380792,0,Stimuli/H-8sim1.png,Stimuli/H-8sim0.png,conf_haus,f,0,0.949645,,1,2,0,2,0,1,,,,,,,,
,,,,,,,,,,,,,,,,,,,,,,,,,,,HR,1,2,2021-01-11_12h20.05.960,configural_featural,2020.2.4,MacIntel,60,1792,1120,,,,,,,,,,,,,,,,,,,,,,,1,0.163380792,1,Stimuli/H-8sim0.png,Stimuli/H-8sim0.png,conf_haus,j,0,1.154325,space,1,3,0,3,0,1,0.601995,,,,,,,
,,,,,,,,,,,,,,,,,,,,,,,,,,,HR,1,2,2021-01-11_12h20.05.960,configural_featural,2020.2.4,MacIntel,60,1792,1120,,,,,,,,,,,,,,,,,,,,,,,0,0.163380792,1,Stimuli/H-8sim2.png,Stimuli/H-8sim2.png,conf_haus,f,1,1.25044,,1,4,0,4,0,1,,,,,,,,
,,,,,,,,,,,,,,,,,,,,,,,,,,,HR,1,2,2021-01-11_12h20.05.960,configural_featural,2020.2.4,MacIntel,60,1792,1120,,,,,,,,,,,,,,,,,,,,,,,0,0.163380792,1,Stimuli/H-8sim1.png,Stimuli/H-8sim1.png,conf_haus,f,1,1.03142,,1,5,0,5,0,1,,,,,,,,
,,,,,,,,,,,,,,,,,,,,,,,,,,,HR,1,2,2021-01-11_12h20.05.960,configural_featural,2020.2.4,MacIntel,60,1792,1120,,,,,,,,,,,,,,,,,,,,,,,0,0.163380792,0,Stimuli/H-8sim3.png,Stimuli/H-8sim1.png,conf_haus,j,1,0.939775,,1,6,0,6,0,1,,,,,,,,
,,,,,,,,,,,,,,,,,,,,,,,,,,,HR,1,2,2021-01-11_12h20.05.960,configural_featural,2020.2.4,MacIntel,60,1792,1120,,,,,,,,,,,,,,,,,,,,,,,0,0.163380792,1,Stimuli/H-8sim3.png,Stimuli/H-8sim3.png,conf_haus,f,1,0.932415,,1,7,0,7,0,1,,,,,,,,
,,,,,,,,,,,,,,,,,,,,,,,,,,,HR,1,2,2021-01-11_12h20.05.960,configural_featural,2020.2.4,MacIntel,60,1792,1120,,,,,,,,,,,,,,,,,,,,,,,1,0.163380792,1,Stimuli/H-8sim0.png,Stimuli/H-8sim0.png,conf_haus,f,1,0.76604,space,1,8,0,8,0,1,0.54922,,,,,,,
,,,,,,,,,,,,,,,,,,,,,,,,,,,HR,1,2,2021-01-11_12h20.05.960,configural_featural,2020.2.4,MacIntel,60,1792,1120,,,,,,,,,,,,,,,,,,,,,,,0,0.163380792,0,Stimuli/H-8sim1.png,Stimuli/H-8sim3.png,conf_haus,j,1,0.649815,,1,9,0,9,0,1,,,,,,,,
,,,,,,,,,,,,,,,,,,,,,,,,,,,HR,1,2,2021-01-11_12h20.05.960,configural_featural,2020.2.4,MacIntel,60,1792,1120,,,,,,,,,,,,,,,,,,,,,,,0,0.163380792,0,Stimuli/H-8sim0.png,Stimuli/H-8sim3.png,conf_haus,j,1,0.85595,,1,10,0,10,0,1,,,,,,,,
,,,,,,,,,,,,,,,,,,,,,,,,,,,HR,1,2,2021-01-11_12h20.05.960,configural_featural,2020.2.4,MacIntel,60,1792,1120,,,,,,,,,,,,,,,,,,,,,,,1,0.163380792,1,Stimuli/H-8sim1.png,Stimuli/H-8sim1.png,conf_haus,f,1,0.9524,space,1,11,0,11,0,1,0.733335,,,,,,,
,,,,,,,,,,,,,,,,,,,,,,,,,,,HR,1,2,2021-01-11_12h20.05.960,configural_featural,2020.2.4,MacIntel,60,1792,1120,,,,,,,,,,,,,,,,,,,,,,,0,0.163380792,0,Stimuli/H-8sim0.png,Stimuli/H-8sim1.png,conf_haus,j,1,0.46488,,1,12,0,12,0,1,,,,,,,,
,,,,,,,,,,,,,,,,,,,,,,,,,,,HR,1,2,2021-01-11_12h20.05.960,configural_featural,2020.2.4,MacIntel,60,1792,1120,,,,,,,,,,,,,,,,,,,,,,,0,0.163380792,1,Stimuli/H-8sim2.png,Stimuli/H-8sim2.png,conf_haus,f,1,0.706965,,1,13,0,13,0,1,,,,,,,,
,,,,,,,,,,,,,,,,,,,,,,,,,,,HR,1,2,2021-01-11_12h20.05.960,configural_featural,2020.2.4,MacIntel,60,1792,1120,,,,,,,,,,,,,,,,,,,,,,,0,0.163380792,0,Stimuli/H-8sim2.png,Stimuli/H-8sim3.png,conf_haus,j,1,0.533575,,1,14,0,14,0,1,,,,,,,,
,,,,,,,,,,,,,,,,,,,,,,,,,,,HR,1,2,2021-01-11_12h20.05.960,configural_featural,2020.2.4,MacIntel,60,1792,1120,,,,,,,,,,,,,,,,,,,,,,,1,0.163380792,1,Stimuli/H-8sim3.png,Stimuli/H-8sim3.png,conf_haus,f,1,0.99999,space,1,15,0,15,0,1,0.56795,,,,,,,
,,,,,,,,,,,,,,,,,,,,,,,,,,,HR,1,2,2021-01-11_12h20.05.960,configural_featural,2020.2.4,MacIntel,60,1792,1120,,,,,,,,,,,,,,,,,,,,,,,0,0.163380792,0,Stimuli/H-8sim3.png,Stimuli/H-8sim0.png,conf_haus,j,1,0.79958,,1,16,0,16,0,1,,,,,,,,
,,,,,,,,,,,,,,,,,,,,,,,,,,,HR,1,2,2021-01-11_12h20.05.960,configural_featural,2020.2.4,MacIntel,60,1792,1120,,,,,,,,,,,,,,,,,,,,,,,0,0.163380792,1,Stimuli/H-8sim0.png,Stimuli/H-8sim0.png,conf_haus,f,1,0.700085,,1,17,0,17,0,1,,,,,,,,
,,,,,,,,,,,,,,,,,,,,,,,,,,,HR,1,2,2021-01-11_12h20.05.960,configural_featural,2020.2.4,MacIntel,60,1792,1120,,,,,,,,,,,,,,,,,,,,,,,1,0.163380792,0,Stimuli/H-8sim2.png,Stimuli/H-8sim3.png,conf_haus,j,1,0.865655,space,1,18,0,18,0,1,0.51953,,,,,,,
,,,,,,,,,,,,,,,,,,,,,,,,,,,HR,1,2,2021-01-11_12h20.05.960,configural_featural,2020.2.4,MacIntel,60,1792,1120,,,,,,,,,,,,,,,,,,,,,,,0,0.163380792,1,Stimuli/H-8sim2.png,Stimuli/H-8sim2.png,conf_haus,f,1,0.533145,,1,19,0,19,0,1,,,,,,,,
,,,,,,,,,,,,,,,,,,,,,,,,,,,HR,1,2,2021-01-11_12h20.05.960,configural_featural,2020.2.4,MacIntel,60,1792,1120,,,,,,,,,,,,,,,,,,,,,,,0,0.163380792,0,Stimuli/H-8sim2.png,Stimuli/H-8sim1.png,conf_haus,f,0,0.667925,,1,20,0,20,0,1,,,,,,,,
,,,,,,,,,,,,,,,,,,,,,,,,,,,HR,1,2,2021-01-11_12h20.05.960,configural_featural,2020.2.4,MacIntel,60,1792,1120,,,,,,,,,,,,,,,,,,,,,,,0,0.163380792,0,Stimuli/H-8sim0.png,Stimuli/H-8sim1.png,conf_haus,j,1,0.700085,,1,21,0,21,0,1,,,,,,,,
,,,,,,,,,,,,,,,,,,,,,,,,,,,HR,1,2,2021-01-11_12h20.05.960,configural_featural,2020.2.4,MacIntel,60,1792,1120,,,,,,,,,,,,,,,,,,,,,,,0,0.163380792,1,Stimuli/H-8sim1.png,Stimuli/H-8sim1.png,conf_haus,f,1,0.66646,,1,22,0,22,0,1,,,,,,,,
,,,,,,,,,,,,,,,,,,,,,,,,,,,HR,1,2,2021-01-11_12h20.05.960,configural_featural,2020.2.4,MacIntel,60,1792,1120,,,,,,,,,,,,,,,,,,,,,,,1,0.163380792,1,Stimuli/H-8sim3.png,Stimuli/H-8sim3.png,conf_haus,f,1,0.731125,space,1,23,0,23,0,1,0.51566,,,,,,,
,,,,,,,,,,,,,,,,,,,,,,,,,,,HR,1,2,2021-01-11_12h20.05.960,configural_featural,2020.2.4,MacIntel,60,1792,1120,,,,,,,,,,,,,,,,,,,,,,,0,0.163380792,0,Stimuli/H-8sim2.png,Stimuli/H-8sim0.png,conf_haus,j,1,0.63344,,1,24,0,24,0,1,,,,,,,,
,,,,,,,,,,,,,,,,,,,,,,,,,,,HR,1,2,2021-01-11_12h20.05.960,configural_featural,2020.2.4,MacIntel,60,1792,1120,,,,,,,,,,,,,,,,,,,,,,,0,0.163380792,1,Stimuli/H-8sim2.png,Stimuli/H-8sim2.png,conf_haus,f,1,1.27024,,1,25,0,25,0,1,,,,,,,,
,,,,,,,,,,,,,,,,,,,,,,,,,,,HR,1,2,2021-01-11_12h20.05.960,configural_featural,2020.2.4,MacIntel,60,1792,1120,,,,,,,,,,,,,,,,,,,,,,,0,0.163380792,1,Stimuli/H-8sim3.png,Stimuli/H-8sim3.png,conf_haus,f,1,0.54935,,1,26,0,26,0,1,,,,,,,,
,,,,,,,,,,,,,,,,,,,,,,,,,,,HR,1,2,2021-01-11_12h20.05.960,configural_featural,2020.2.4,MacIntel,60,1792,1120,,,,,,,,,,,,,,,,,,,,,,,1,0.163380792,1,Stimuli/H-8sim0.png,Stimuli/H-8sim0.png,conf_haus,f,1,0.65453,space,1,27,0,27,0,1,0.505465,,,,,,,
,,,,,,,,,,,,,,,,,,,,,,,,,,,HR,1,2,2021-01-11_12h20.05.960,configural_featural,2020.2.4,MacIntel,60,1792,1120,,,,,,,,,,,,,,,,,,,,,,,0,0.163380792,0,Stimuli/H-8sim0.png,Stimuli/H-8sim2.png,conf_haus,j,1,0.85267,,1,28,0,28,0,1,,,,,,,,
,,,,,,,,,,,,,,,,,,,,,,,,,,,HR,1,2,2021-01-11_12h20.05.960,configural_featural,2020.2.4,MacIntel,60,1792,1120,,,,,,,,,,,,,,,,,,,,,,,1,0.163380792,0,Stimuli/H-8sim3.png,Stimuli/H-8sim2.png,conf_haus,j,1,1.167045,space,1,29,0,29,0,1,0.55088,,,,,,,
,,,,,,,,,,,,,,,,,,,,,,,,,,,HR,1,2,2021-01-11_12h20.05.960,configural_featural,2020.2.4,MacIntel,60,1792,1120,,,,,,,,,,,,,,,,,,,,,,,0,0.163380792,1,Stimuli/H-8sim1.png,Stimuli/H-8sim1.png,conf_haus,f,1,0.35828,,1,30,0,30,0,1,,,,,,,,
,,,,,,,,,,,,,,,,,,,,,,,,,,,HR,1,2,2021-01-11_12h20.05.960,configural_featural,2020.2.4,MacIntel,60,1792,1120,,,,,,,,,,,,,,,,,,,,,,,0,0.163380792,1,Stimuli/H-8sim0.png,Stimuli/H-8sim0.png,conf_haus,f,1,0.549335,,1,31,0,31,0,1,,,,,,,,
,,,,,,,,,,,,,,,,,,,,,,,,,,,HR,1,2,2021-01-11_12h20.05.960,configural_featural,2020.2.4,MacIntel,60,1792,1120,,,,,,,,,,,,,,,,,,,,,,,0,0.163380792,0,Stimuli/H-8sim1.png,Stimuli/H-8sim2.png,conf_haus,f,0,0.765725,,1,32,0,32,0,1,,,,,,,,
,,,,,,,,,,,,,,,,,,,,,,,,,,,HR,1,2,2021-01-11_12h20.05.960,configural_featural,2020.2.4,MacIntel,60,1792,1120,,,,,,,,,,,,,,,,,,,,,,,0,0.163380792,0,Stimuli/H-8sim3.png,Stimuli/H-8sim0.png,conf_haus,j,1,0.69911,,1,33,0,33,0,1,,,,,,,,
,,,,,,,,,,,,,,,,,,,,,,,,,,,HR,1,2,2021-01-11_12h20.05.960,configural_featural,2020.2.4,MacIntel,60,1792,1120,,,,,,,,,,,,,,,,,,,,,,,1,0.163380792,0,Stimuli/H-8sim3.png,Stimuli/H-8sim2.png,conf_haus,j,1,1.26656,space,1,34,0,34,0,1,0.569895,,,,,,,
,,,,,,,,,,,,,,,,,,,,,,,,,,,HR,1,2,2021-01-11_12h20.05.960,configural_featural,2020.2.4,MacIntel,60,1792,1120,,,,,,,,,,,,,,,,,,,,,,,0,0.163380792,1,Stimuli/H-8sim2.png,Stimuli/H-8sim2.png,conf_haus,f,1,0.499415,,1,35,0,35,0,1,,,,,,,,
,,,,,,,,,,,,,,,,,,,,,,,,,,,HR,1,2,2021-01-11_12h20.05.960,configural_featural,2020.2.4,MacIntel,60,1792,1120,,,,,,,,,,,,,,,,,,,,,,,0,0.163380792,1,Stimuli/H-8sim3.png,Stimuli/H-8sim3.png,conf_haus,f,1,0.46798,,1,36,0,36,0,1,,,,,,,,
,,,,,,,,,,,,,,,,,,,,,,,,,,,HR,1,2,2021-01-11_12h20.05.960,configural_featural,2020.2.4,MacIntel,60,1792,1120,,,,,,,,,,,,,,,,,,,,,,,1,0.163380792,1,Stimuli/H-8sim1.png,Stimuli/H-8sim1.png,conf_haus,f,1,0.42224,space,1,37,0,37,0,1,0.57419,,,,,,,
,,,,,,,,,,,,,,,,,,,,,,,,,,,HR,1,2,2021-01-11_12h20.05.960,configural_featural,2020.2.4,MacIntel,60,1792,1120,,,,,,,,,,,,,,,,,,,,,,,0,0.163380792,1,Stimuli/H-8sim3.png,Stimuli/H-8sim3.png,conf_haus,f,1,0.63501,,1,38,0,38,0,1,,,,,,,,
,,,,,,,,,,,,,,,,,,,,,,,,,,,HR,1,2,2021-01-11_12h20.05.960,configural_featural,2020.2.4,MacIntel,60,1792,1120,,,,,,,,,,,,,,,,,,,,,,,0,0.163380792,0,Stimuli/H-8sim1.png,Stimuli/H-8sim2.png,conf_haus,f,0,0.416235,,1,39,0,39,0,1,,,,,,,,
,,,,,,,,,,,,,,,,,,,,,,,,,,,HR,1,2,2021-01-11_12h20.05.960,configural_featural,2020.2.4,MacIntel,60,1792,1120,,,,,,,,,,,,,,,,,,,,,,,1,0.163380792,0,Stimuli/H-8sim2.png,Stimuli/H-8sim0.png,conf_haus,j,1,0.54784,space,1,40,0,40,0,1,0.54125,,,,,,,
,,,,,,,,,,,,,,,,,,,,,,,,,,,HR,1,2,2021-01-11_12h20.05.960,configural_featural,2020.2.4,MacIntel,60,1792,1120,,,,,,,,,,,,,,,,,,,,,,,0,0.163380792,0,Stimuli/H-8sim0.png,Stimuli/H-8sim2.png,conf_haus,f,0,0.46545,,1,41,0,41,0,1,,,,,,,,
,,,,,,,,,,,,,,,,,,,,,,,,,,,HR,1,2,2021-01-11_12h20.05.960,configural_featural,2020.2.4,MacIntel,60,1792,1120,,,,,,,,,,,,,,,,,,,,,,,0,0.163380792,1,Stimuli/H-8sim2.png,Stimuli/H-8sim2.png,conf_haus,f,1,0.451585,,1,42,0,42,0,1,,,,,,,,
,,,,,,,,,,,,,,,,,,,,,,,,,,,HR,1,2,2021-01-11_12h20.05.960,configural_featural,2020.2.4,MacIntel,60,1792,1120,,,,,,,,,,,,,,,,,,,,,,,0,0.163380792,1,Stimuli/H-8sim1.png,Stimuli/H-8sim1.png,conf_haus,f,1,0.757505,,1,43,0,43,0,1,,,,,,,,
,,,,,,,,,,,,,,,,,,,,,,,,,,,HR,1,2,2021-01-11_12h20.05.960,configural_featural,2020.2.4,MacIntel,60,1792,1120,,,,,,,,,,,,,,,,,,,,,,,1,0.163380792,0,Stimuli/H-8sim1.png,Stimuli/H-8sim0.png,conf_haus,j,1,0.43325,space,1,44,0,44,0,1,0.63308,,,,,,,
,,,,,,,,,,,,,,,,,,,,,,,,,,,HR,1,2,2021-01-11_12h20.05.960,configural_featural,2020.2.4,MacIntel,60,1792,1120,,,,,,,,,,,,,,,,,,,,,,,0,0.163380792,0,Stimuli/H-8sim3.png,Stimuli/H-8sim1.png,conf_haus,j,1,1.01678,,1,45,0,45,0,1,,,,,,,,
,,,,,,,,,,,,,,,,,,,,,,,,,,,HR,1,2,2021-01-11_12h20.05.960,configural_featural,2020.2.4,MacIntel,60,1792,1120,,,,,,,,,,,,,,,,,,,,,,,0,0.163380792,0,Stimuli/H-8sim1.png,Stimuli/H-8sim3.png,conf_haus,j,1,0.716645,,1,46,0,46,0,1,,,,,,,,
,,,,,,,,,,,,,,,,,,,,,,,,,,,HR,1,2,2021-01-11_12h20.05.960,configural_featural,2020.2.4,MacIntel,60,1792,1120,,,,,,,,,,,,,,,,,,,,,,,0,0.163380792,1,Stimuli/H-8sim0.png,Stimuli/H-8sim0.png,conf_haus,f,1,0.63283,,1,47,0,47,0,1,,,,,,,,
,,,,,,,,,,,,,,,,,,,,,,,,,,,HR,1,2,2021-01-11_12h20.05.960,configural_featural,2020.2.4,MacIntel,60,1792,1120,,,,,,,,,,,,,,,,,,,,,,,,,,,,,,,,,,,,,,,,1,1,5,1,1,conf_haus,Designs/instructions_haus_1234.png
,,,,,,,,,,,,,,,,,,,,,,,,,,,HR,1,2,2021-01-11_12h20.05.960,configural_featural,2020.2.4,MacIntel,60,1792,1120,,,,,,,,,,,,,,,,,,,,,,,0,0.163380792,1,Stimuli/f131.png,Stimuli/f131.png,feat_face,f,1,1.598945,,1,0,0,0,0,1,,,,,,,,
,,,,,,,,,,,,,,,,,,,,,,,,,,,HR,1,2,2021-01-11_12h20.05.960,configural_featural,2020.2.4,MacIntel,60,1792,1120,,,,,,,,,,,,,,,,,,,,,,,0,0.163380792,0,Stimuli/f15.png,Stimuli/f131.png,feat_face,j,1,0.63796,,1,1,0,1,0,1,,,,,,,,
,,,,,,,,,,,,,,,,,,,,,,,,,,,HR,1,2,2021-01-11_12h20.05.960,configural_featural,2020.2.4,MacIntel,60,1792,1120,,,,,,,,,,,,,,,,,,,,,,,0,0.163380792,1,Stimuli/f15.png,Stimuli/f15.png,feat_face,j,0,0.949075,,1,2,0,2,0,1,,,,,,,,
,,,,,,,,,,,,,,,,,,,,,,,,,,,HR,1,2,2021-01-11_12h20.05.960,configural_featural,2020.2.4,MacIntel,60,1792,1120,,,,,,,,,,,,,,,,,,,,,,,0,0.163380792,1,Stimuli/f24.png,Stimuli/f24.png,feat_face,f,1,0.51489,,1,3,0,3,0,1,,,,,,,,
,,,,,,,,,,,,,,,,,,,,,,,,,,,HR,1,2,2021-01-11_12h20.05.960,configural_featural,2020.2.4,MacIntel,60,1792,1120,,,,,,,,,,,,,,,,,,,,,,,1,0.163380792,0,Stimuli/f131.png,Stimuli/f142.png,feat_face,j,1,0.682925,space,1,4,0,4,0,1,0.49891,,,,,,,
,,,,,,,,,,,,,,,,,,,,,,,,,,,HR,1,2,2021-01-11_12h20.05.960,configural_featural,2020.2.4,MacIntel,60,1792,1120,,,,,,,,,,,,,,,,,,,,,,,0,0.163380792,0,Stimuli/f24.png,Stimuli/f142.png,feat_face,j,1,0.61989,,1,5,0,5,0,1,,,,,,,,
,,,,,,,,,,,,,,,,,,,,,,,,,,,HR,1,2,2021-01-11_12h20.05.960,configural_featural,2020.2.4,MacIntel,60,1792,1120,,,,,,,,,,,,,,,,,,,,,,,0,0.163380792,1,Stimuli/f142.png,Stimuli/f142.png,feat_face,f,1,0.90194,,1,6,0,6,0,1,,,,,,,,
,,,,,,,,,,,,,,,,,,,,,,,,,,,HR,1,2,2021-01-11_12h20.05.960,configural_featural,2020.2.4,MacIntel,60,1792,1120,,,,,,,,,,,,,,,,,,,,,,,0,0.163380792,0,Stimuli/f24.png,Stimuli/f131.png,feat_face,j,1,1.399135,,1,7,0,7,0,1,,,,,,,,
,,,,,,,,,,,,,,,,,,,,,,,,,,,HR,1,2,2021-01-11_12h20.05.960,configural_featural,2020.2.4,MacIntel,60,1792,1120,,,,,,,,,,,,,,,,,,,,,,,1,0.163380792,0,Stimuli/f24.png,Stimuli/f15.png,feat_face,j,1,0.599,space,1,8,0,8,0,1,0.519765,,,,,,,
,,,,,,,,,,,,,,,,,,,,,,,,,,,HR,1,2,2021-01-11_12h20.05.960,configural_featural,2020.2.4,MacIntel,60,1792,1120,,,,,,,,,,,,,,,,,,,,,,,0,0.163380792,0,Stimuli/f24.png,Stimuli/f142.png,feat_face,j,1,0.733725,,1,9,0,9,0,1,,,,,,,,
,,,,,,,,,,,,,,,,,,,,,,,,,,,HR,1,2,2021-01-11_12h20.05.960,configural_featural,2020.2.4,MacIntel,60,1792,1120,,,,,,,,,,,,,,,,,,,,,,,1,0.163380792,1,Stimuli/f142.png,Stimuli/f142.png,feat_face,f,1,0.749025,space,1,10,0,10,0,1,0.53568,,,,,,,
,,,,,,,,,,,,,,,,,,,,,,,,,,,HR,1,2,2021-01-11_12h20.05.960,configural_featural,2020.2.4,MacIntel,60,1792,1120,,,,,,,,,,,,,,,,,,,,,,,0,0.163380792,1,Stimuli/f24.png,Stimuli/f24.png,feat_face,f,1,0.75257,,1,11,0,11,0,1,,,,,,,,
,,,,,,,,,,,,,,,,,,,,,,,,,,,HR,1,2,2021-01-11_12h20.05.960,configural_featural,2020.2.4,MacIntel,60,1792,1120,,,,,,,,,,,,,,,,,,,,,,,0,0.163380792,1,Stimuli/f15.png,Stimuli/f15.png,feat_face,f,1,0.772955,,1,12,0,12,0,1,,,,,,,,
,,,,,,,,,,,,,,,,,,,,,,,,,,,HR,1,2,2021-01-11_12h20.05.960,configural_featural,2020.2.4,MacIntel,60,1792,1120,,,,,,,,,,,,,,,,,,,,,,,0,0.163380792,0,Stimuli/f142.png,Stimuli/f131.png,feat_face,j,1,1.004315,,1,13,0,13,0,1,,,,,,,,
,,,,,,,,,,,,,,,,,,,,,,,,,,,HR,1,2,2021-01-11_12h20.05.960,configural_featural,2020.2.4,MacIntel,60,1792,1120,,,,,,,,,,,,,,,,,,,,,,,1,0.163380792,1,Stimuli/f131.png,Stimuli/f131.png,feat_face,f,1,0.64094,space,1,14,0,14,0,1,0.688235,,,,,,,
,,,,,,,,,,,,,,,,,,,,,,,,,,,HR,1,2,2021-01-11_12h20.05.960,configural_featural,2020.2.4,MacIntel,60,1792,1120,,,,,,,,,,,,,,,,,,,,,,,0,0.163380792,1,Stimuli/f24.png,Stimuli/f24.png,feat_face,f,1,0.81601,,1,15,0,15,0,1,,,,,,,,
,,,,,,,,,,,,,,,,,,,,,,,,,,,HR,1,2,2021-01-11_12h20.05.960,configural_featural,2020.2.4,MacIntel,60,1792,1120,,,,,,,,,,,,,,,,,,,,,,,0,0.163380792,0,Stimuli/f24.png,Stimuli/f15.png,feat_face,j,1,0.43287,,1,16,0,16,0,1,,,,,,,,
,,,,,,,,,,,,,,,,,,,,,,,,,,,HR,1,2,2021-01-11_12h20.05.960,configural_featural,2020.2.4,MacIntel,60,1792,1120,,,,,,,,,,,,,,,,,,,,,,,0,0.163380792,0,Stimuli/f142.png,Stimuli/f24.png,feat_face,j,1,0.599745,,1,17,0,17,0,1,,,,,,,,
,,,,,,,,,,,,,,,,,,,,,,,,,,,HR,1,2,2021-01-11_12h20.05.960,configural_featural,2020.2.4,MacIntel,60,1792,1120,,,,,,,,,,,,,,,,,,,,,,,0,0.163380792,1,Stimuli/f142.png,Stimuli/f142.png,feat_face,f,1,0.86536,,1,18,0,18,0,1,,,,,,,,
,,,,,,,,,,,,,,,,,,,,,,,,,,,HR,1,2,2021-01-11_12h20.05.960,configural_featural,2020.2.4,MacIntel,60,1792,1120,,,,,,,,,,,,,,,,,,,,,,,0,0.163380792,0,Stimuli/f142.png,Stimuli/f15.png,feat_face,j,1,0.69094,,1,19,0,19,0,1,,,,,,,,
,,,,,,,,,,,,,,,,,,,,,,,,,,,HR,1,2,2021-01-11_12h20.05.960,configural_featural,2020.2.4,MacIntel,60,1792,1120,,,,,,,,,,,,,,,,,,,,,,,1,0.163380792,0,Stimuli/f15.png,Stimuli/f24.png,feat_face,j,1,0.633485,space,1,20,0,20,0,1,0.72246,,,,,,,
,,,,,,,,,,,,,,,,,,,,,,,,,,,HR,1,2,2021-01-11_12h20.05.960,configural_featural,2020.2.4,MacIntel,60,1792,1120,,,,,,,,,,,,,,,,,,,,,,,0,0.163380792,0,Stimuli/f24.png,Stimuli/f131.png,feat_face,j,1,0.622035,,1,21,0,21,0,1,,,,,,,,
,,,,,,,,,,,,,,,,,,,,,,,,,,,HR,1,2,2021-01-11_12h20.05.960,configural_featural,2020.2.4,MacIntel,60,1792,1120,,,,,,,,,,,,,,,,,,,,,,,0,0.163380792,1,Stimuli/f131.png,Stimuli/f131.png,feat_face,f,1,0.73347,,1,22,0,22,0,1,,,,,,,,
,,,,,,,,,,,,,,,,,,,,,,,,,,,HR,1,2,2021-01-11_12h20.05.960,configural_featural,2020.2.4,MacIntel,60,1792,1120,,,,,,,,,,,,,,,,,,,,,,,0,0.163380792,1,Stimuli/f15.png,Stimuli/f15.png,feat_face,f,1,0.5825,,1,23,0,23,0,1,,,,,,,,
,,,,,,,,,,,,,,,,,,,,,,,,,,,HR,1,2,2021-01-11_12h20.05.960,configural_featural,2020.2.4,MacIntel,60,1792,1120,,,,,,,,,,,,,,,,,,,,,,,1,0.163380792,1,Stimuli/f15.png,Stimuli/f15.png,feat_face,f,1,0.46481,space,1,24,0,24,0,1,0.53414,,,,,,,
,,,,,,,,,,,,,,,,,,,,,,,,,,,HR,1,2,2021-01-11_12h20.05.960,configural_featural,2020.2.4,MacIntel,60,1792,1120,,,,,,,,,,,,,,,,,,,,,,,0,0.163380792,1,Stimuli/f142.png,Stimuli/f142.png,feat_face,f,1,0.499765,,1,25,0,25,0,1,,,,,,,,
,,,,,,,,,,,,,,,,,,,,,,,,,,,HR,1,2,2021-01-11_12h20.05.960,configural_featural,2020.2.4,MacIntel,60,1792,1120,,,,,,,,,,,,,,,,,,,,,,,1,0.163380792,0,Stimuli/f131.png,Stimuli/f15.png,feat_face,j,1,0.434005,space,1,26,0,26,0,1,0.482815,,,,,,,
,,,,,,,,,,,,,,,,,,,,,,,,,,,HR,1,2,2021-01-11_12h20.05.960,configural_featural,2020.2.4,MacIntel,60,1792,1120,,,,,,,,,,,,,,,,,,,,,,,0,0.163380792,0,Stimuli/f131.png,Stimuli/f24.png,feat_face,j,1,1.23339,,1,27,0,27,0,1,,,,,,,,
,,,,,,,,,,,,,,,,,,,,,,,,,,,HR,1,2,2021-01-11_12h20.05.960,configural_featural,2020.2.4,MacIntel,60,1792,1120,,,,,,,,,,,,,,,,,,,,,,,0,0.163380792,1,Stimuli/f131.png,Stimuli/f131.png,feat_face,f,1,0.58381,,1,28,0,28,0,1,,,,,,,,
,,,,,,,,,,,,,,,,,,,,,,,,,,,HR,1,2,2021-01-11_12h20.05.960,configural_featural,2020.2.4,MacIntel,60,1792,1120,,,,,,,,,,,,,,,,,,,,,,,0,0.163380792,0,Stimuli/f142.png,Stimuli/f24.png,feat_face,j,1,0.43578,,1,29,0,29,0,1,,,,,,,,
,,,,,,,,,,,,,,,,,,,,,,,,,,,HR,1,2,2021-01-11_12h20.05.960,configural_featural,2020.2.4,MacIntel,60,1792,1120,,,,,,,,,,,,,,,,,,,,,,,0,0.163380792,1,Stimuli/f24.png,Stimuli/f24.png,feat_face,f,1,0.5501,,1,30,0,30,0,1,,,,,,,,
,,,,,,,,,,,,,,,,,,,,,,,,,,,HR,1,2,2021-01-11_12h20.05.960,configural_featural,2020.2.4,MacIntel,60,1792,1120,,,,,,,,,,,,,,,,,,,,,,,1,0.163380792,0,Stimuli/f131.png,Stimuli/f142.png,feat_face,j,1,0.41677,space,1,31,0,31,0,1,0.586795,,,,,,,
,,,,,,,,,,,,,,,,,,,,,,,,,,,HR,1,2,2021-01-11_12h20.05.960,configural_featural,2020.2.4,MacIntel,60,1792,1120,,,,,,,,,,,,,,,,,,,,,,,1,0.163380792,1,Stimuli/f24.png,Stimuli/f24.png,feat_face,f,1,0.585775,space,1,32,0,32,0,1,0.98283,,,,,,,
,,,,,,,,,,,,,,,,,,,,,,,,,,,HR,1,2,2021-01-11_12h20.05.960,configural_featural,2020.2.4,MacIntel,60,1792,1120,,,,,,,,,,,,,,,,,,,,,,,0,0.163380792,0,Stimuli/f15.png,Stimuli/f24.png,feat_face,j,1,1.38476,,1,33,0,33,0,1,,,,,,,,
,,,,,,,,,,,,,,,,,,,,,,,,,,,HR,1,2,2021-01-11_12h20.05.960,configural_featural,2020.2.4,MacIntel,60,1792,1120,,,,,,,,,,,,,,,,,,,,,,,0,0.163380792,0,Stimuli/f15.png,Stimuli/f142.png,feat_face,j,1,0.797575,,1,34,0,34,0,1,,,,,,,,
,,,,,,,,,,,,,,,,,,,,,,,,,,,HR,1,2,2021-01-11_12h20.05.960,configural_featural,2020.2.4,MacIntel,60,1792,1120,,,,,,,,,,,,,,,,,,,,,,,0,0.163380792,1,Stimuli/f15.png,Stimuli/f15.png,feat_face,f,1,1.04904,,1,35,0,35,0,1,,,,,,,,
,,,,,,,,,,,,,,,,,,,,,,,,,,,HR,1,2,2021-01-11_12h20.05.960,configural_featural,2020.2.4,MacIntel,60,1792,1120,,,,,,,,,,,,,,,,,,,,,,,1,0.163380792,0,Stimuli/f131.png,Stimuli/f24.png,feat_face,j,1,0.487965,space,1,36,0,36,0,1,0.584895,,,,,,,
,,,,,,,,,,,,,,,,,,,,,,,,,,,HR,1,2,2021-01-11_12h20.05.960,configural_featural,2020.2.4,MacIntel,60,1792,1120,,,,,,,,,,,,,,,,,,,,,,,0,0.163380792,1,Stimuli/f142.png,Stimuli/f142.png,feat_face,j,0,0.88107,,1,37,0,37,0,1,,,,,,,,
,,,,,,,,,,,,,,,,,,,,,,,,,,,HR,1,2,2021-01-11_12h20.05.960,configural_featural,2020.2.4,MacIntel,60,1792,1120,,,,,,,,,,,,,,,,,,,,,,,0,0.163380792,0,Stimuli/f15.png,Stimuli/f131.png,feat_face,j,1,0.673895,,1,38,0,38,0,1,,,,,,,,
,,,,,,,,,,,,,,,,,,,,,,,,,,,HR,1,2,2021-01-11_12h20.05.960,configural_featural,2020.2.4,MacIntel,60,1792,1120,,,,,,,,,,,,,,,,,,,,,,,0,0.163380792,1,Stimuli/f131.png,Stimuli/f131.png,feat_face,f,1,0.5889,,1,39,0,39,0,1,,,,,,,,
,,,,,,,,,,,,,,,,,,,,,,,,,,,HR,1,2,2021-01-11_12h20.05.960,configural_featural,2020.2.4,MacIntel,60,1792,1120,,,,,,,,,,,,,,,,,,,,,,,1,0.163380792,1,Stimuli/f15.png,Stimuli/f15.png,feat_face,f,1,0.76857,space,1,40,0,40,0,1,0.634605,,,,,,,
,,,,,,,,,,,,,,,,,,,,,,,,,,,HR,1,2,2021-01-11_12h20.05.960,configural_featural,2020.2.4,MacIntel,60,1792,1120,,,,,,,,,,,,,,,,,,,,,,,0,0.163380792,0,Stimuli/f142.png,Stimuli/f131.png,feat_face,j,1,0.450705,,1,41,0,41,0,1,,,,,,,,
,,,,,,,,,,,,,,,,,,,,,,,,,,,HR,1,2,2021-01-11_12h20.05.960,configural_featural,2020.2.4,MacIntel,60,1792,1120,,,,,,,,,,,,,,,,,,,,,,,0,0.163380792,0,Stimuli/f15.png,Stimuli/f142.png,feat_face,j,1,0.64989,,1,42,0,42,0,1,,,,,,,,
,,,,,,,,,,,,,,,,,,,,,,,,,,,HR,1,2,2021-01-11_12h20.05.960,configural_featural,2020.2.4,MacIntel,60,1792,1120,,,,,,,,,,,,,,,,,,,,,,,1,0.163380792,0,Stimuli/f142.png,Stimuli/f15.png,feat_face,j,1,0.48842,,0,43,0,43,0,1,,,,,,,,
,,,,,,,,,,,,,,,,,,,,,,,,,,,HR,1,2,2021-01-11_12h20.05.960,configural_featural,2020.2.4,MacIntel,60,1792,1120,,,,,,,,,,,,,,,,,,,,,,,0,0.163380792,1,Stimuli/f142.png,Stimuli/f142.png,feat_face,f,1,0.532415,,1,44,0,44,0,1,,,,,,,,
,,,,,,,,,,,,,,,,,,,,,,,,,,,HR,1,2,2021-01-11_12h20.05.960,configural_featural,2020.2.4,MacIntel,60,1792,1120,,,,,,,,,,,,,,,,,,,,,,,0,0.163380792,0,Stimuli/f131.png,Stimuli/f15.png,feat_face,j,1,0.33161,,1,45,0,45,0,1,,,,,,,,
,,,,,,,,,,,,,,,,,,,,,,,,,,,HR,1,2,2021-01-11_12h20.05.960,configural_featural,2020.2.4,MacIntel,60,1792,1120,,,,,,,,,,,,,,,,,,,,,,,0,0.163380792,1,Stimuli/f131.png,Stimuli/f131.png,feat_face,f,1,0.667435,,1,46,0,46,0,1,,,,,,,,
,,,,,,,,,,,,,,,,,,,,,,,,,,,HR,1,2,2021-01-11_12h20.05.960,configural_featural,2020.2.4,MacIntel,60,1792,1120,,,,,,,,,,,,,,,,,,,,,,,0,0.163380792,1,Stimuli/f24.png,Stimuli/f24.png,feat_face,f,1,0.654665,,1,47,0,47,0,1,,,,,,,,
,,,,,,,,,,,,,,,,,,,,,,,,,,,HR,1,2,2021-01-11_12h20.05.960,configural_featural,2020.2.4,MacIntel,60,1792,1120,,,,,,,,,,,,,,,,,,,,,,,,,,,,,,,,,,,,,,,,1,2,6,2,1,feat_face,Designs/instructions_face_1234.png
,,,,,,,,,,,,,,,,,,,,,,,,,,,HR,1,2,2021-01-11_12h20.05.960,configural_featural,2020.2.4,MacIntel,60,1792,1120,,,,,,,,,,,,,,,,,,,,,,,0,0.163380792,1,Stimuli/H6sim0.png,Stimuli/H6sim0.png,feat_haus,j,0,1.60055,,1,0,0,0,0,1,,,,,,,,
,,,,,,,,,,,,,,,,,,,,,,,,,,,HR,1,2,2021-01-11_12h20.05.960,configural_featural,2020.2.4,MacIntel,60,1792,1120,,,,,,,,,,,,,,,,,,,,,,,0,0.163380792,0,Stimuli/H5sim0.png,Stimuli/H8sim0.png,feat_haus,j,1,0.7067,,1,1,0,1,0,1,,,,,,,,
,,,,,,,,,,,,,,,,,,,,,,,,,,,HR,1,2,2021-01-11_12h20.05.960,configural_featural,2020.2.4,MacIntel,60,1792,1120,,,,,,,,,,,,,,,,,,,,,,,1,0.163380792,0,Stimuli/H8sim0.png,Stimuli/H5sim0.png,feat_haus,j,1,0.538925,space,1,2,0,2,0,1,0.619555,,,,,,,
,,,,,,,,,,,,,,,,,,,,,,,,,,,HR,1,2,2021-01-11_12h20.05.960,configural_featural,2020.2.4,MacIntel,60,1792,1120,,,,,,,,,,,,,,,,,,,,,,,0,0.163380792,1,Stimuli/H7sim0.png,Stimuli/H7sim0.png,feat_haus,f,1,0.64929,,1,3,0,3,0,1,,,,,,,,
,,,,,,,,,,,,,,,,,,,,,,,,,,,HR,1,2,2021-01-11_12h20.05.960,configural_featural,2020.2.4,MacIntel,60,1792,1120,,,,,,,,,,,,,,,,,,,,,,,0,0.163380792,0,Stimuli/H7sim0.png,Stimuli/H5sim0.png,feat_haus,j,1,0.50018,,1,4,0,4,0,1,,,,,,,,
,,,,,,,,,,,,,,,,,,,,,,,,,,,HR,1,2,2021-01-11_12h20.05.960,configural_featural,2020.2.4,MacIntel,60,1792,1120,,,,,,,,,,,,,,,,,,,,,,,0,0.163380792,1,Stimuli/H5sim0.png,Stimuli/H5sim0.png,feat_haus,f,1,0.75084,,1,5,0,5,0,1,,,,,,,,
,,,,,,,,,,,,,,,,,,,,,,,,,,,HR,1,2,2021-01-11_12h20.05.960,configural_featural,2020.2.4,MacIntel,60,1792,1120,,,,,,,,,,,,,,,,,,,,,,,0,0.163380792,1,Stimuli/H8sim0.png,Stimuli/H8sim0.png,feat_haus,f,1,0.84863,,1,6,0,6,0,1,,,,,,,,
,,,,,,,,,,,,,,,,,,,,,,,,,,,HR,1,2,2021-01-11_12h20.05.960,configural_featural,2020.2.4,MacIntel,60,1792,1120,,,,,,,,,,,,,,,,,,,,,,,0,0.163380792,0,Stimuli/H5sim0.png,Stimuli/H6sim0.png,feat_haus,j,1,0.415845,,1,7,0,7,0,1,,,,,,,,
,,,,,,,,,,,,,,,,,,,,,,,,,,,HR,1,2,2021-01-11_12h20.05.960,configural_featural,2020.2.4,MacIntel,60,1792,1120,,,,,,,,,,,,,,,,,,,,,,,1,0.163380792,0,Stimuli/H6sim0.png,Stimuli/H7sim0.png,feat_haus,j,1,0.63167,space,1,8,0,8,0,1,0.64955,,,,,,,
,,,,,,,,,,,,,,,,,,,,,,,,,,,HR,1,2,2021-01-11_12h20.05.960,configural_featural,2020.2.4,MacIntel,60,1792,1120,,,,,,,,,,,,,,,,,,,,,,,0,0.163380792,1,Stimuli/H6sim0.png,Stimuli/H6sim0.png,feat_haus,f,1,0.620645,,1,9,0,9,0,1,,,,,,,,
,,,,,,,,,,,,,,,,,,,,,,,,,,,HR,1,2,2021-01-11_12h20.05.960,configural_featural,2020.2.4,MacIntel,60,1792,1120,,,,,,,,,,,,,,,,,,,,,,,1,0.163380792,0,Stimuli/H8sim0.png,Stimuli/H7sim0.png,feat_haus,j,1,0.38741,space,1,10,0,10,0,1,0.71656,,,,,,,
,,,,,,,,,,,,,,,,,,,,,,,,,,,HR,1,2,2021-01-11_12h20.05.960,configural_featural,2020.2.4,MacIntel,60,1792,1120,,,,,,,,,,,,,,,,,,,,,,,0,0.163380792,1,Stimuli/H7sim0.png,Stimuli/H7sim0.png,feat_haus,f,1,0.384775,,1,11,0,11,0,1,,,,,,,,
,,,,,,,,,,,,,,,,,,,,,,,,,,,HR,1,2,2021-01-11_12h20.05.960,configural_featural,2020.2.4,MacIntel,60,1792,1120,,,,,,,,,,,,,,,,,,,,,,,0,0.163380792,0,Stimuli/H8sim0.png,Stimuli/H6sim0.png,feat_haus,j,1,0.399955,,1,12,0,12,0,1,,,,,,,,
,,,,,,,,,,,,,,,,,,,,,,,,,,,HR,1,2,2021-01-11_12h20.05.960,configural_featural,2020.2.4,MacIntel,60,1792,1120,,,,,,,,,,,,,,,,,,,,,,,0,0.163380792,0,Stimuli/H8sim0.png,Stimuli/H6sim0.png,feat_haus,j,1,0.59822,,1,13,0,13,0,1,,,,,,,,
,,,,,,,,,,,,,,,,,,,,,,,,,,,HR,1,2,2021-01-11_12h20.05.960,configural_featural,2020.2.4,MacIntel,60,1792,1120,,,,,,,,,,,,,,,,,,,,,,,1,0.163380792,1,Stimuli/H8sim0.png,Stimuli/H8sim0.png,feat_haus,f,1,0.416605,space,1,14,0,14,0,1,0.58986,,,,,,,
,,,,,,,,,,,,,,,,,,,,,,,,,,,HR,1,2,2021-01-11_12h20.05.960,configural_featural,2020.2.4,MacIntel,60,1792,1120,,,,,,,,,,,,,,,,,,,,,,,0,0.163380792,1,Stimuli/H5sim0.png,Stimuli/H5sim0.png,feat_haus,f,1,0.7364,,1,15,0,15,0,1,,,,,,,,
,,,,,,,,,,,,,,,,,,,,,,,,,,,HR,1,2,2021-01-11_12h20.05.960,configural_featural,2020.2.4,MacIntel,60,1792,1120,,,,,,,,,,,,,,,,,,,,,,,0,0.163380792,1,Stimuli/H5sim0.png,Stimuli/H5sim0.png,feat_haus,f,1,0.4472,,1,16,0,16,0,1,,,,,,,,
,,,,,,,,,,,,,,,,,,,,,,,,,,,HR,1,2,2021-01-11_12h20.05.960,configural_featural,2020.2.4,MacIntel,60,1792,1120,,,,,,,,,,,,,,,,,,,,,,,0,0.163380792,0,Stimuli/H5sim0.png,Stimuli/H6sim0.png,feat_haus,j,1,0.504375,,1,17,0,17,0,1,,,,,,,,
,,,,,,,,,,,,,,,,,,,,,,,,,,,HR,1,2,2021-01-11_12h20.05.960,configural_featural,2020.2.4,MacIntel,60,1792,1120,,,,,,,,,,,,,,,,,,,,,,,0,0.163380792,0,Stimuli/H6sim0.png,Stimuli/H8sim0.png,feat_haus,j,1,0.467185,,1,18,0,18,0,1,,,,,,,,
,,,,,,,,,,,,,,,,,,,,,,,,,,,HR,1,2,2021-01-11_12h20.05.960,configural_featural,2020.2.4,MacIntel,60,1792,1120,,,,,,,,,,,,,,,,,,,,,,,1,0.163380792,0,Stimuli/H5sim0.png,Stimuli/H8sim0.png,feat_haus,j,1,0.83645,space,1,19,0,19,0,1,0.66608,,,,,,,
,,,,,,,,,,,,,,,,,,,,,,,,,,,HR,1,2,2021-01-11_12h20.05.960,configural_featural,2020.2.4,MacIntel,60,1792,1120,,,,,,,,,,,,,,,,,,,,,,,0,0.163380792,1,Stimuli/H6sim0.png,Stimuli/H6sim0.png,feat_haus,f,1,0.41618,,1,20,0,20,0,1,,,,,,,,
,,,,,,,,,,,,,,,,,,,,,,,,,,,HR,1,2,2021-01-11_12h20.05.960,configural_featural,2020.2.4,MacIntel,60,1792,1120,,,,,,,,,,,,,,,,,,,,,,,0,0.163380792,1,Stimuli/H8sim0.png,Stimuli/H8sim0.png,feat_haus,f,1,0.754945,,1,21,0,21,0,1,,,,,,,,
,,,,,,,,,,,,,,,,,,,,,,,,,,,HR,1,2,2021-01-11_12h20.05.960,configural_featural,2020.2.4,MacIntel,60,1792,1120,,,,,,,,,,,,,,,,,,,,,,,1,0.163380792,0,Stimuli/H6sim0.png,Stimuli/H8sim0.png,feat_haus,j,1,0.399005,space,1,22,0,22,0,1,0.49992,,,,,,,
,,,,,,,,,,,,,,,,,,,,,,,,,,,HR,1,2,2021-01-11_12h20.05.960,configural_featural,2020.2.4,MacIntel,60,1792,1120,,,,,,,,,,,,,,,,,,,,,,,0,0.163380792,1,Stimuli/H7sim0.png,Stimuli/H7sim0.png,feat_haus,f,1,0.424065,,1,23,0,23,0,1,,,,,,,,
,,,,,,,,,,,,,,,,,,,,,,,,,,,HR,1,2,2021-01-11_12h20.05.960,configural_featural,2020.2.4,MacIntel,60,1792,1120,,,,,,,,,,,,,,,,,,,,,,,0,0.163380792,0,Stimuli/H8sim0.png,Stimuli/H5sim0.png,feat_haus,j,1,0.400655,,1,24,0,24,0,1,,,,,,,,
,,,,,,,,,,,,,,,,,,,,,,,,,,,HR,1,2,2021-01-11_12h20.05.960,configural_featural,2020.2.4,MacIntel,60,1792,1120,,,,,,,,,,,,,,,,,,,,,,,1,0.163380792,1,Stimuli/H6sim0.png,Stimuli/H6sim0.png,feat_haus,f,1,0.49855,space,1,25,0,25,0,1,0.59994,,,,,,,
,,,,,,,,,,,,,,,,,,,,,,,,,,,HR,1,2,2021-01-11_12h20.05.960,configural_featural,2020.2.4,MacIntel,60,1792,1120,,,,,,,,,,,,,,,,,,,,,,,0,0.163380792,1,Stimuli/H8sim0.png,Stimuli/H8sim0.png,feat_haus,f,1,0.433295,,1,26,0,26,0,1,,,,,,,,
,,,,,,,,,,,,,,,,,,,,,,,,,,,HR,1,2,2021-01-11_12h20.05.960,configural_featural,2020.2.4,MacIntel,60,1792,1120,,,,,,,,,,,,,,,,,,,,,,,0,0.163380792,0,Stimuli/H7sim0.png,Stimuli/H6sim0.png,feat_haus,j,1,0.33769,,1,27,0,27,0,1,,,,,,,,
,,,,,,,,,,,,,,,,,,,,,,,,,,,HR,1,2,2021-01-11_12h20.05.960,configural_featural,2020.2.4,MacIntel,60,1792,1120,,,,,,,,,,,,,,,,,,,,,,,0,0.163380792,1,Stimuli/H7sim0.png,Stimuli/H7sim0.png,feat_haus,f,1,0.485075,,1,28,0,28,0,1,,,,,,,,
,,,,,,,,,,,,,,,,,,,,,,,,,,,HR,1,2,2021-01-11_12h20.05.960,configural_featural,2020.2.4,MacIntel,60,1792,1120,,,,,,,,,,,,,,,,,,,,,,,0,0.163380792,0,Stimuli/H6sim0.png,Stimuli/H5sim0.png,feat_haus,j,1,0.438525,,1,29,0,29,0,1,,,,,,,,
,,,,,,,,,,,,,,,,,,,,,,,,,,,HR,1,2,2021-01-11_12h20.05.960,configural_featural,2020.2.4,MacIntel,60,1792,1120,,,,,,,,,,,,,,,,,,,,,,,0,0.163380792,0,Stimuli/H7sim0.png,Stimuli/H6sim0.png,feat_haus,f,0,1.53248,,1,30,0,30,0,1,,,,,,,,
,,,,,,,,,,,,,,,,,,,,,,,,,,,HR,1,2,2021-01-11_12h20.05.960,configural_featural,2020.2.4,MacIntel,60,1792,1120,,,,,,,,,,,,,,,,,,,,,,,1,0.163380792,0,Stimuli/H8sim0.png,Stimuli/H7sim0.png,feat_haus,j,1,1.850675,space,1,31,0,31,0,1,0.56756,,,,,,,
,,,,,,,,,,,,,,,,,,,,,,,,,,,HR,1,2,2021-01-11_12h20.05.960,configural_featural,2020.2.4,MacIntel,60,1792,1120,,,,,,,,,,,,,,,,,,,,,,,0,0.163380792,1,Stimuli/H5sim0.png,Stimuli/H5sim0.png,feat_haus,f,1,0.38293,,1,32,0,32,0,1,,,,,,,,
,,,,,,,,,,,,,,,,,,,,,,,,,,,HR,1,2,2021-01-11_12h20.05.960,configural_featural,2020.2.4,MacIntel,60,1792,1120,,,,,,,,,,,,,,,,,,,,,,,1,0.163380792,0,Stimuli/H5sim0.png,Stimuli/H7sim0.png,feat_haus,j,1,1.0839,space,1,33,0,33,0,1,0.56725,,,,,,,
,,,,,,,,,,,,,,,,,,,,,,,,,,,HR,1,2,2021-01-11_12h20.05.960,configural_featural,2020.2.4,MacIntel,60,1792,1120,,,,,,,,,,,,,,,,,,,,,,,0,0.163380792,1,Stimuli/H7sim0.png,Stimuli/H7sim0.png,feat_haus,f,1,0.46707,,1,34,0,34,0,1,,,,,,,,
,,,,,,,,,,,,,,,,,,,,,,,,,,,HR,1,2,2021-01-11_12h20.05.960,configural_featural,2020.2.4,MacIntel,60,1792,1120,,,,,,,,,,,,,,,,,,,,,,,0,0.163380792,1,Stimuli/H6sim0.png,Stimuli/H6sim0.png,feat_haus,f,1,0.690295,,1,35,0,35,0,1,,,,,,,,
,,,,,,,,,,,,,,,,,,,,,,,,,,,HR,1,2,2021-01-11_12h20.05.960,configural_featural,2020.2.4,MacIntel,60,1792,1120,,,,,,,,,,,,,,,,,,,,,,,0,0.163380792,0,Stimuli/H7sim0.png,Stimuli/H8sim0.png,feat_haus,j,1,0.386525,,1,36,0,36,0,1,,,,,,,,
,,,,,,,,,,,,,,,,,,,,,,,,,,,HR,1,2,2021-01-11_12h20.05.960,configural_featural,2020.2.4,MacIntel,60,1792,1120,,,,,,,,,,,,,,,,,,,,,,,1,0.163380792,0,Stimuli/H7sim0.png,Stimuli/H8sim0.png,feat_haus,j,1,0.614985,space,1,37,0,37,0,1,0.51863,,,,,,,
,,,,,,,,,,,,,,,,,,,,,,,,,,,HR,1,2,2021-01-11_12h20.05.960,configural_featural,2020.2.4,MacIntel,60,1792,1120,,,,,,,,,,,,,,,,,,,,,,,0,0.163380792,1,Stimuli/H8sim0.png,Stimuli/H8sim0.png,feat_haus,f,1,0.53214,,1,38,0,38,0,1,,,,,,,,
,,,,,,,,,,,,,,,,,,,,,,,,,,,HR,1,2,2021-01-11_12h20.05.960,configural_featural,2020.2.4,MacIntel,60,1792,1120,,,,,,,,,,,,,,,,,,,,,,,0,0.163380792,1,Stimuli/H5sim0.png,Stimuli/H5sim0.png,feat_haus,f,1,0.59925,,1,39,0,39,0,1,,,,,,,,
,,,,,,,,,,,,,,,,,,,,,,,,,,,HR,1,2,2021-01-11_12h20.05.960,configural_featural,2020.2.4,MacIntel,60,1792,1120,,,,,,,,,,,,,,,,,,,,,,,0,0.163380792,1,Stimuli/H5sim0.png,Stimuli/H5sim0.png,feat_haus,f,1,0.514525,,1,40,0,40,0,1,,,,,,,,
,,,,,,,,,,,,,,,,,,,,,,,,,,,HR,1,2,2021-01-11_12h20.05.960,configural_featural,2020.2.4,MacIntel,60,1792,1120,,,,,,,,,,,,,,,,,,,,,,,1,0.163380792,0,Stimuli/H6sim0.png,Stimuli/H7sim0.png,feat_haus,j,1,0.431565,space,1,41,0,41,0,1,0.52214,,,,,,,
,,,,,,,,,,,,,,,,,,,,,,,,,,,HR,1,2,2021-01-11_12h20.05.960,configural_featural,2020.2.4,MacIntel,60,1792,1120,,,,,,,,,,,,,,,,,,,,,,,0,0.163380792,1,Stimuli/H8sim0.png,Stimuli/H8sim0.png,feat_haus,f,1,0.48968,,1,42,0,42,0,1,,,,,,,,
,,,,,,,,,,,,,,,,,,,,,,,,,,,HR,1,2,2021-01-11_12h20.05.960,configural_featural,2020.2.4,MacIntel,60,1792,1120,,,,,,,,,,,,,,,,,,,,,,,0,0.163380792,0,Stimuli/H7sim0.png,Stimuli/H5sim0.png,feat_haus,j,1,0.437505,,1,43,0,43,0,1,,,,,,,,
,,,,,,,,,,,,,,,,,,,,,,,,,,,HR,1,2,2021-01-11_12h20.05.960,configural_featural,2020.2.4,MacIntel,60,1792,1120,,,,,,,,,,,,,,,,,,,,,,,0,0.163380792,0,Stimuli/H5sim0.png,Stimuli/H7sim0.png,feat_haus,j,1,0.74006,,1,44,0,44,0,1,,,,,,,,
,,,,,,,,,,,,,,,,,,,,,,,,,,,HR,1,2,2021-01-11_12h20.05.960,configural_featural,2020.2.4,MacIntel,60,1792,1120,,,,,,,,,,,,,,,,,,,,,,,1,0.163380792,1,Stimuli/H7sim0.png,Stimuli/H7sim0.png,feat_haus,f,1,0.833265,space,1,45,0,45,0,1,0.566095,,,,,,,
,,,,,,,,,,,,,,,,,,,,,,,,,,,HR,1,2,2021-01-11_12h20.05.960,configural_featural,2020.2.4,MacIntel,60,1792,1120,,,,,,,,,,,,,,,,,,,,,,,0,0.163380792,0,Stimuli/H6sim0.png,Stimuli/H5sim0.png,feat_haus,j,1,0.46737,,1,46,0,46,0,1,,,,,,,,
,,,,,,,,,,,,,,,,,,,,,,,,,,,HR,1,2,2021-01-11_12h20.05.960,configural_featural,2020.2.4,MacIntel,60,1792,1120,,,,,,,,,,,,,,,,,,,,,,,0,0.163380792,1,Stimuli/H6sim0.png,Stimuli/H6sim0.png,feat_haus,f,1,0.470275,,1,47,0,47,0,1,,,,,,,,
,,,,,,,,,,,,,,,,,,,,,,,,,,,HR,1,2,2021-01-11_12h20.05.960,configural_featural,2020.2.4,MacIntel,60,1792,1120,,,,,,,,,,,,,,,,,,,,,,,,,,,,,,,,,,,,,,,,1,3,7,3,1,feat_haus,Designs/instructions_haus_1234.png
