Block_type,instruction_text,blocks.thisRepN,blocks.thisTrialN,blocks.thisN,blocks.thisIndex,trials.thisRepN,trials.thisTrialN,trials.thisN,trials.thisIndex,X Scale,Y Scale,text_top.started,text_top.stopped,text_bottom.started,text_bottom.stopped,ccimage.started,ccimage.stopped,text_3.started,text_3.stopped,fix_switches,side,target_image.started,target_image.stopped,text.started,text.stopped,probe_image.started,probe_image.stopped,text_2.started,text_2.stopped,key_resp.keys,key_resp.rt,key_resp.started,key_resp.stopped,participant,design,position,date,expName,psychopyVersion,frameRate,
conf_face,Press S for same or D for different faces. Press <SPACE> to continue.,0,0,0,0,0,0,0,0,0.05,0.05,15.278188823023811,None,15.278188823023811,None,15.278188823023811,None,16.558720708009787,None,0,1,18.699110875022598,None,18.88112907903269,None,19.08060576603748,None,19.28082175203599,None,space,2.358824798022397,19.28082175203599,None,SR,1,1,2020_Oct_24_2013,configural_featural,2020.2.4,None,
conf_face,Press S for same or D for different faces. Press <SPACE> to continue.,0,0,0,0,1,0,1,0,,,,,,,,,,,0,0,21.66411266900832,None,21.864193755027372,None,22.064360548043624,None,22.264064156042878,None,space,0.5688898770022206,22.264064156042878,None,SR,1,1,2020_Oct_24_2013,configural_featural,2020.2.4,None,
conf_face,Press S for same or D for different faces. Press <SPACE> to continue.,0,0,0,0,2,0,2,0,,,,,,,,,,,0,1,22.86389890499413,None,23.06438082299428,None,23.26413677801611,None,23.46417462604586,None,space,0.31178850098513067,23.46417462604586,None,SR,1,1,2020_Oct_24_2013,configural_featural,2020.2.4,None,
conf_face,Press S for same or D for different faces. Press <SPACE> to continue.,0,0,0,0,3,0,3,0,,,,,,,,,,,0,1,23.797721723036375,None,23.997448628011625,None,24.197498779045418,None,24.397695477004163,None,space,0.20415225700708106,24.397695477004163,None,SR,1,1,2020_Oct_24_2013,configural_featural,2020.2.4,None,
conf_face,Press S for same or D for different faces. Press <SPACE> to continue.,0,0,0,0,4,0,4,0,,,,,,,,,,,0,0,24.63054020301206,None,24.83089166501304,None,25.0309451870271,None,25.23193279199768,None,space,0.17664937896188349,25.23193279199768,None,SR,1,1,2020_Oct_24_2013,configural_featural,2020.2.4,None,
conf_face,Press S for same or D for different faces. Press <SPACE> to continue.,0,0,0,0,5,0,5,0,,,,,,,,,,,1,1,25.430806678021327,None,25.630683808005415,None,25.831077240000013,None,26.030953202047385,None,space,0.1442368869902566,26.030953202047385,None,SR,1,1,2020_Oct_24_2013,configural_featural,2020.2.4,None,
conf_face,Press S for same or D for different faces. Press <SPACE> to continue.,0,0,0,0,6,0,6,0,,,,,,,,,,,0,0,26.197397126001306,None,26.397897685994394,None,26.597571866994258,None,26.79776332702022,None,space,0.4607167149661109,26.79776332702022,None,SR,1,1,2020_Oct_24_2013,configural_featural,2020.2.4,None,
conf_face,Press S for same or D for different faces. Press <SPACE> to continue.,0,0,0,0,7,0,7,0,,,,,,,,,,,0,1,27.280699094000738,None,27.480770162015688,None,27.680901500047185,None,27.880903565033805,None,space,0.14430011197691783,27.880903565033805,None,SR,1,1,2020_Oct_24_2013,configural_featural,2020.2.4,None,
conf_face,Press S for same or D for different faces. Press <SPACE> to continue.,0,0,0,0,8,0,8,0,,,,,,,,,,,0,0,28.047577115008608,None,28.24782888602931,None,28.447630345996004,None,28.64776988403173,None,space,0.12578866601688787,28.64776988403173,None,SR,1,1,2020_Oct_24_2013,configural_featural,2020.2.4,None,
conf_face,Press S for same or D for different faces. Press <SPACE> to continue.,0,0,0,0,9,0,9,0,,,,,,,,,,,0,0,28.7974821110256,None,28.99704525800189,None,29.197357375000138,None,29.397599288029596,None,space,0.5057526199962012,29.397599288029596,None,SR,1,1,2020_Oct_24_2013,configural_featural,2020.2.4,None,
conf_face,Press S for same or D for different faces. Press <SPACE> to continue.,0,0,0,0,10,0,10,0,,,,,,,,,,,0,1,29.930620223050937,None,30.13085023703752,None,30.331217439030297,None,30.531160490005277,None,space,0.05242572701536119,30.531160490005277,None,SR,1,1,2020_Oct_24_2013,configural_featural,2020.2.4,None,
conf_face,Press S for same or D for different faces. Press <SPACE> to continue.,0,0,0,0,11,0,11,0,,,,,,,,,,,0,1,30.614177884999663,None,30.81420516502112,None,31.014481185993645,None,31.21447636402445,None,space,0.06740332202753052,31.21447636402445,None,SR,1,1,2020_Oct_24_2013,configural_featural,2020.2.4,None,
conf_face,Press S for same or D for different faces. Press <SPACE> to continue.,0,0,0,0,12,0,12,0,,,,,,,,,,,1,0,31.313799960014876,None,31.51430242002243,None,31.71426248300122,None,31.9144474810455,None,space,0.4393609589897096,31.9144474810455,None,SR,1,1,2020_Oct_24_2013,configural_featural,2020.2.4,None,
conf_face,Press S for same or D for different faces. Press <SPACE> to continue.,0,0,0,0,13,0,13,0,,,,,,,,,,,0,0,32.38053474301705,None,32.582929644035175,None,32.797603205021005,None,33.000281236018054,None,space,0.5384983100229874,33.000281236018054,None,SR,1,1,2020_Oct_24_2013,configural_featural,2020.2.4,None,
conf_face,Press S for same or D for different faces. Press <SPACE> to continue.,0,0,0,0,14,0,14,0,,,,,,,,,,,0,0,33.56437020399608,None,33.764186574029736,None,33.96421310905134,None,34.16450947901467,None,space,0.5123762299772352,34.16450947901467,None,SR,1,1,2020_Oct_24_2013,configural_featural,2020.2.4,None,
conf_face,Press S for same or D for different faces. Press <SPACE> to continue.,0,0,0,0,15,0,15,0,,,,,,,,,,,0,0,34.69706898502773,None,34.899672236002516,None,35.1144239520072,None,35.297435885004234,None,space,0.1859485759632662,35.297435885004234,None,SR,1,1,2020_Oct_24_2013,configural_featural,2020.2.4,None,
conf_face,Press S for same or D for different faces. Press <SPACE> to continue.,0,0,0,0,16,0,16,0,,,,,,,,,,,0,0,35.514201109996065,None,35.714285514026415,None,35.91411751904525,None,36.11420995101798,None,space,0.3108942449907772,36.11420995101798,None,SR,1,1,2020_Oct_24_2013,configural_featural,2020.2.4,None,
conf_face,Press S for same or D for different faces. Press <SPACE> to continue.,0,0,0,0,17,0,17,0,,,,,,,,,,,0,0,36.44730937801069,None,36.64765592000913,None,36.847523069998715,None,37.04753934103064,None,space,0.2971721210051328,37.04753934103064,None,SR,1,1,2020_Oct_24_2013,configural_featural,2020.2.4,None,
conf_face,Press S for same or D for different faces. Press <SPACE> to continue.,0,0,0,0,18,0,18,0,,,,,,,,,,,0,1,37.364107144006994,None,37.56685318402015,None,37.76406326104188,None,37.96416091604624,None,space,0.19461964099900797,37.96416091604624,None,SR,1,1,2020_Oct_24_2013,configural_featural,2020.2.4,None,
conf_face,Press S for same or D for different faces. Press <SPACE> to continue.,0,0,0,0,19,0,19,0,,,,,,,,,,,0,1,38.18098548799753,None,38.38279170100577,None,38.5805644140346,None,38.78076942602638,None,space,0.05507729999953881,38.78076942602638,None,SR,1,1,2020_Oct_24_2013,configural_featural,2020.2.4,None,
conf_face,Press S for same or D for different faces. Press <SPACE> to continue.,0,0,0,0,20,0,20,0,,,,,,,,,,,0,1,38.86438314401312,None,39.06613429100253,None,39.26428058301099,None,39.464300842024386,None,space,0.019490359001792967,39.464300842024386,None,SR,1,1,2020_Oct_24_2013,configural_featural,2020.2.4,None,
conf_face,Press S for same or D for different faces. Press <SPACE> to continue.,0,0,0,0,21,0,21,0,,,,,,,,,,,0,1,39.514200299046934,None,39.71467359201051,None,39.914327905047685,None,40.11427173903212,None,space,0.28408308897633106,40.11427173903212,None,SR,1,1,2020_Oct_24_2013,configural_featural,2020.2.4,None,
conf_face,Press S for same or D for different faces. Press <SPACE> to continue.,0,0,0,0,22,0,22,0,,,,,,,,,,,0,0,40.430782220035326,None,40.63306793500669,None,40.847925600013696,None,41.049545955029316,None,space,3.38662988395663,41.049545955029316,None,SR,1,1,2020_Oct_24_2013,configural_featural,2020.2.4,None,
conf_face,Press S for same or D for different faces. Press <SPACE> to continue.,0,0,0,0,23,0,23,0,,,,,,,,,,,0,1,44.46416562399827,None,44.66383823903743,None,44.864438129006885,None,45.06637998303631,None,space,0.321492595016025,45.06637998303631,None,SR,1,1,2020_Oct_24_2013,configural_featural,2020.2.4,None,
conf_haus,Press S for same or D for different houses. Press <SPACE> to continue.,0,1,1,1,0,0,0,0,,,,,,,,,45.41359193704557,None,0,0,46.46427031204803,None,46.66431369201746,None,46.86455321201356,None,47.064608013024554,None,space,0.2576202009804547,47.064608013024554,None,SR,1,1,2020_Oct_24_2013,configural_featural,2020.2.4,None,
conf_haus,Press S for same or D for different houses. Press <SPACE> to continue.,0,1,1,1,1,0,1,0,,,,,,,,,,,0,0,47.3472672610078,None,47.55045797704952,None,47.76466237701243,None,47.964344577048905,None,space,0.29640512802870944,47.964344577048905,None,SR,1,1,2020_Oct_24_2013,configural_featural,2020.2.4,None,
conf_haus,Press S for same or D for different houses. Press <SPACE> to continue.,0,1,1,1,2,0,2,0,,,,,,,,,,,0,0,48.28109124203911,None,48.481083729013335,None,48.68123095401097,None,48.88306523102801,None,space,0.2491565070231445,48.88306523102801,None,SR,1,1,2020_Oct_24_2013,configural_featural,2020.2.4,None,
,,,,,,,,,,,,,,,,,,,,0,0,49.14762276201509,None,49.349586170050316,None,49.564396659028716,None,,,,,,,,,,,,,,
