Block_type,instruction_text,blocks.thisRepN,blocks.thisTrialN,blocks.thisN,blocks.thisIndex,trials.thisRepN,trials.thisTrialN,trials.thisN,trials.thisIndex,X Scale,Y Scale,text_top.started,text_top.stopped,text_bottom.started,text_bottom.stopped,ccimage.started,ccimage.stopped,target_image.started,target_image.stopped,text.started,text.stopped,probe_image.started,probe_image.stopped,text_2.started,text_2.stopped,key_resp.keys,key_resp.rt,key_resp.started,key_resp.stopped,participant,design,date,expName,psychopyVersion,frameRate,
conf_face,Press S for same or D for different faces. Press <SPACE> to continue.,0,0,0,0,0,0,0,0,0.05,0.05,11.329138075001538,None,11.329138075001538,None,11.329138075001538,None,12.651620909979101,None,12.85233425500337,None,13.052162555977702,None,13.252271778008435,None,space,1.07997526001418,13.252271778008435,None,SR,1,2020_Oct_24_1808,configural_featural,2020.2.4,None,
conf_face,Press S for same or D for different faces. Press <SPACE> to continue.,0,0,0,0,1,0,1,0,,,,,,,,,14.35195494495565,None,14.552324938995298,None,14.752287892973982,None,14.952315314963926,None,space,0.38378620700677857,14.952315314963926,None,SR,1,2020_Oct_24_1808,configural_featural,2020.2.4,None,
conf_face,Press S for same or D for different faces. Press <SPACE> to continue.,0,0,0,0,2,0,2,0,,,,,,,,,15.387551588006318,None,15.585507598996628,None,15.785818080999888,None,15.98578682699008,None,space,0.372690349991899,15.98578682699008,None,SR,1,2020_Oct_24_1808,configural_featural,2020.2.4,None,
conf_face,Press S for same or D for different faces. Press <SPACE> to continue.,0,0,0,0,3,0,3,0,,,,,,,,,16.385496428003535,None,16.585522849985864,None,16.785656431980897,None,16.98568843997782,None,space,0.3124699820182286,16.98568843997782,None,SR,1,2020_Oct_24_1808,configural_featural,2020.2.4,None,
conf_face,Press S for same or D for different faces. Press <SPACE> to continue.,0,0,0,0,4,0,4,0,,,,,,,,,17.318590559996665,None,17.518978582986165,None,17.718808714998886,None,17.91891685198061,None,space,0.28063758998177946,17.91891685198061,None,SR,1,2020_Oct_24_1808,configural_featural,2020.2.4,None,
conf_face,Press S for same or D for different faces. Press <SPACE> to continue.,0,0,0,0,5,0,5,0,,,,,,,,,18.218634146964177,None,18.418970453960355,None,18.618932912009768,None,18.818922037957236,None,space,0.29526873701252043,18.818922037957236,None,SR,1,2020_Oct_24_1808,configural_featural,2020.2.4,None,
conf_face,Press S for same or D for different faces. Press <SPACE> to continue.,0,0,0,0,6,0,6,0,,,,,,,,,19.135316782980226,None,19.33563205599785,None,19.535408453957643,None,19.735700874996837,None,space,0.3177852059598081,19.735700874996837,None,SR,1,2020_Oct_24_1808,configural_featural,2020.2.4,None,
conf_face,Press S for same or D for different faces. Press <SPACE> to continue.,0,0,0,0,7,0,7,0,,,,,,,,,20.08546477998607,None,20.28561434999574,None,20.48542824096512,None,20.68578430195339,None,space,0.39117137499852106,20.68578430195339,None,SR,1,2020_Oct_24_1808,configural_featural,2020.2.4,None,
conf_face,Press S for same or D for different faces. Press <SPACE> to continue.,0,0,0,0,8,0,8,0,,,,,,,,,21.102090233995114,None,21.302329661964905,None,21.502296450955328,None,21.702604199002963,None,space,0.19168154802173376,21.702604199002963,None,SR,1,2020_Oct_24_1808,configural_featural,2020.2.4,None,
conf_face,Press S for same or D for different faces. Press <SPACE> to continue.,0,0,0,0,9,0,9,0,,,,,,,,,21.918371965002734,None,22.119090394000523,None,22.31885344395414,None,22.51899589796085,None,space,0.11769966699648649,22.51899589796085,None,SR,1,2020_Oct_24_1808,configural_featural,2020.2.4,None,
conf_face,Press S for same or D for different faces. Press <SPACE> to continue.,0,0,0,0,10,0,10,0,,,,,,,,,22.65160568995634,None,22.852346369996667,None,23.052195794007275,None,23.252436300972477,None,space,0.48931563401129097,23.252436300972477,None,SR,1,2020_Oct_24_1808,configural_featural,2020.2.4,None,
conf_face,Press S for same or D for different faces. Press <SPACE> to continue.,0,0,0,0,11,0,11,0,,,,,,,,,23.768846386985388,None,23.969071846979205,None,24.1688730189926,None,24.368997294979636,None,space,0.1618851390085183,24.368997294979636,None,SR,1,2020_Oct_24_1808,configural_featural,2020.2.4,None,
conf_face,Press S for same or D for different faces. Press <SPACE> to continue.,0,0,0,0,12,0,12,0,,,,,,,,,24.552310014958493,None,24.75217364600394,None,24.952431794954464,None,25.152433426002972,None,space,0.09602337999967858,25.152433426002972,None,SR,1,2020_Oct_24_1808,configural_featural,2020.2.4,None,
conf_face,Press S for same or D for different faces. Press <SPACE> to continue.,0,0,0,0,13,0,13,0,,,,,,,,,25.268908922967967,None,25.46906161896186,None,25.66904980398249,None,25.869087558996398,None,space,0.11562279402278364,25.869087558996398,None,SR,1,2020_Oct_24_1808,configural_featural,2020.2.4,None,
conf_face,Press S for same or D for different faces. Press <SPACE> to continue.,0,0,0,0,14,0,14,0,,,,,,,,,26.002203964977525,None,26.201782160962466,None,26.402403825952206,None,26.602485099982005,None,space,0.138422054995317,26.602485099982005,None,SR,1,2020_Oct_24_1808,configural_featural,2020.2.4,None,
conf_face,Press S for same or D for different faces. Press <SPACE> to continue.,0,0,0,0,15,0,15,0,,,,,,,,,26.768765256972983,None,26.96906560298521,None,27.16914255497977,None,27.369055496994406,None,space,0.14612743200268596,27.369055496994406,None,SR,1,2020_Oct_24_1808,configural_featural,2020.2.4,None,
conf_face,Press S for same or D for different faces. Press <SPACE> to continue.,0,0,0,0,16,0,16,0,,,,,,,,,27.53547640296165,None,27.735770592000335,None,27.9357890469837,None,28.135868822981138,None,space,0.21305173001019284,28.135868822981138,None,SR,1,2020_Oct_24_1808,configural_featural,2020.2.4,None,
conf_face,Press S for same or D for different faces. Press <SPACE> to continue.,0,0,0,0,17,0,17,0,,,,,,,,,28.369428072997835,None,28.569016492983792,None,28.769117338990327,None,28.96907619095873,None,space,0.07473909598775208,28.96907619095873,None,SR,1,2020_Oct_24_1808,configural_featural,2020.2.4,None,
conf_face,Press S for same or D for different faces. Press <SPACE> to continue.,0,0,0,0,18,0,18,0,,,,,,,,,29.068460911978036,None,29.269117829971947,None,29.46896187099628,None,29.669111975992564,None,space,0.057206291996408254,29.669111975992564,None,SR,1,2020_Oct_24_1808,configural_featural,2020.2.4,None,
conf_face,Press S for same or D for different faces. Press <SPACE> to continue.,0,0,0,0,19,0,19,0,,,,,,,,,29.75247672398109,None,29.95250437798677,None,30.152473802969325,None,30.352447085955646,None,space,0.32662281300872564,30.352447085955646,None,SR,1,2020_Oct_24_1808,configural_featural,2020.2.4,None,
conf_face,Press S for same or D for different faces. Press <SPACE> to continue.,0,0,0,0,20,0,20,0,,,,,,,,,30.702502828964498,None,30.902553158986848,None,31.102178242988884,None,31.30241094500525,None,space,0.3641934780171141,31.30241094500525,None,SR,1,2020_Oct_24_1808,configural_featural,2020.2.4,None,
conf_face,Press S for same or D for different faces. Press <SPACE> to continue.,0,0,0,0,21,0,21,0,,,,,,,,,31.685493597993627,None,31.885806089965627,None,32.085848005954176,None,32.28580226498889,None,space,0.2816083939978853,32.28580226498889,None,SR,1,2020_Oct_24_1808,configural_featural,2020.2.4,None,
conf_face,Press S for same or D for different faces. Press <SPACE> to continue.,0,0,0,0,22,0,22,0,,,,,,,,,32.585476473963354,None,32.785788952955045,None,32.98568099900149,None,33.18582782399608,None,space,0.16065253200940788,33.18582782399608,None,SR,1,2020_Oct_24_1808,configural_featural,2020.2.4,None,
conf_face,Press S for same or D for different faces. Press <SPACE> to continue.,0,0,0,0,23,0,23,0,,,,,,,,,33.36881923099281,None,33.56925815495197,None,33.76913276099367,None,33.96908752195304,None,space,0.21812806196976453,33.96908752195304,None,SR,1,2020_Oct_24_1808,configural_featural,2020.2.4,None,
conf_haus,Press S for same or D for different houses. Press <SPACE> to continue.,0,1,1,1,0,0,0,0,,,,,,,,,34.202222714957315,None,34.4025324669783,None,34.60259629500797,None,34.80247262399644,None,space,0.18530312302755192,34.80247262399644,None,SR,1,2020_Oct_24_1808,configural_featural,2020.2.4,None,
conf_haus,Press S for same or D for different houses. Press <SPACE> to continue.,0,1,1,1,1,0,1,0,,,,,,,,,35.002564222959336,None,35.20253242197214,None,35.40255022997735,None,35.602550437964965,None,space,0.13572973996633664,35.602550437964965,None,SR,1,2020_Oct_24_1808,configural_featural,2020.2.4,None,
conf_haus,Press S for same or D for different houses. Press <SPACE> to continue.,0,1,1,1,2,0,2,0,,,,,,,,,35.76914130296791,None,35.96914044796722,None,36.16914963000454,None,36.36922635498922,None,space,0.21586034097708762,36.36922635498922,None,SR,1,2020_Oct_24_1808,configural_featural,2020.2.4,None,
conf_haus,Press S for same or D for different houses. Press <SPACE> to continue.,0,1,1,1,3,0,3,0,,,,,,,,,36.60222081496613,None,36.80231304396875,None,37.00199912698008,None,37.20255001698388,None,space,0.1454291149857454,37.20255001698388,None,SR,1,2020_Oct_24_1808,configural_featural,2020.2.4,None,
conf_haus,Press S for same or D for different houses. Press <SPACE> to continue.,0,1,1,1,4,0,4,0,,,,,,,,,37.368834282970056,None,37.56913486798294,None,37.7691374529968,None,37.96887413796503,None,space,0.07856718497350812,37.96887413796503,None,SR,1,2020_Oct_24_1808,configural_featural,2020.2.4,None,
conf_haus,Press S for same or D for different houses. Press <SPACE> to continue.,0,1,1,1,5,0,5,0,,,,,,,,,38.06863723695278,None,38.26911823300179,None,38.46912261797115,None,38.668751442979556,None,space,0.45624860003590584,38.668751442979556,None,SR,1,2020_Oct_24_1808,configural_featural,2020.2.4,None,
conf_haus,Press S for same or D for different houses. Press <SPACE> to continue.,0,1,1,1,6,0,6,0,,,,,,,,,39.15228878200287,None,39.35260176495649,None,39.552494123985525,None,39.75229695998132,None,space,0.5334094119607471,39.75229695998132,None,SR,1,2020_Oct_24_1808,configural_featural,2020.2.4,None,
conf_haus,Press S for same or D for different houses. Press <SPACE> to continue.,0,1,1,1,7,0,7,0,,,,,,,,,40.3025250720093,None,40.50228946196148,None,40.702530981972814,None,40.902563484967686,None,space,0.06771921901963651,40.902563484967686,None,SR,1,2020_Oct_24_1808,configural_featural,2020.2.4,None,
conf_haus,Press S for same or D for different houses. Press <SPACE> to continue.,0,1,1,1,8,0,8,0,,,,,,,,,41.00258779997239,None,41.20252034597797,None,41.40253236400895,None,41.60256519797258,None,space,0.5623715309775434,41.60256519797258,None,SR,1,2020_Oct_24_1808,configural_featural,2020.2.4,None,
conf_haus,Press S for same or D for different houses. Press <SPACE> to continue.,0,1,1,1,9,0,9,0,,,,,,,,,42.18577658897266,None,42.385897195956204,None,42.585910050955135,None,42.78579468897078,None,space,0.07049285597167909,42.78579468897078,None,SR,1,2020_Oct_24_1808,configural_featural,2020.2.4,None,
conf_haus,Press S for same or D for different houses. Press <SPACE> to continue.,0,1,1,1,10,0,10,0,,,,,,,,,42.88587781996466,None,43.085793525970075,None,43.28584027197212,None,43.48583552899072,None,space,0.10795577202225104,43.48583552899072,None,SR,1,2020_Oct_24_1808,configural_featural,2020.2.4,None,
conf_haus,Press S for same or D for different houses. Press <SPACE> to continue.,0,1,1,1,11,0,11,0,,,,,,,,,43.61913108697627,None,43.81894856999861,None,44.01920690300176,None,44.219204296008684,None,space,0.6620968100032769,44.219204296008684,None,SR,1,2020_Oct_24_1808,configural_featural,2020.2.4,None,
conf_haus,Press S for same or D for different houses. Press <SPACE> to continue.,0,1,1,1,12,0,12,0,,,,,,,,,44.90250811300939,None,45.102554904995486,None,45.30248355399817,None,45.50254411797505,None,space,0.4586559970048256,45.50254411797505,None,SR,1,2020_Oct_24_1808,configural_featural,2020.2.4,None,
conf_haus,Press S for same or D for different houses. Press <SPACE> to continue.,0,1,1,1,13,0,13,0,,,,,,,,,45.98592039500363,None,46.18583752599079,None,46.385828449972905,None,46.58595175400842,None,space,0.25951166602317244,46.58595175400842,None,SR,1,2020_Oct_24_1808,configural_featural,2020.2.4,None,
conf_haus,Press S for same or D for different houses. Press <SPACE> to continue.,0,1,1,1,14,0,14,0,,,,,,,,,46.869279266975354,None,47.06926364498213,None,47.269213794963434,None,47.46893740800442,None,space,0.09609898598864675,47.46893740800442,None,SR,1,2020_Oct_24_1808,configural_featural,2020.2.4,None,
conf_haus,Press S for same or D for different houses. Press <SPACE> to continue.,0,1,1,1,15,0,15,0,,,,,,,,,47.585779101995286,None,47.78588793100789,None,47.985815580992494,None,48.185844583960716,None,space,0.5001185970031656,48.185844583960716,None,SR,1,2020_Oct_24_1808,configural_featural,2020.2.4,None,
conf_haus,Press S for same or D for different houses. Press <SPACE> to continue.,0,1,1,1,16,0,16,0,,,,,,,,,48.70259504800197,None,48.90258997498313,None,49.10257401299896,None,49.30173150199698,None,space,0.5701225870288908,49.30173150199698,None,SR,1,2020_Oct_24_1808,configural_featural,2020.2.4,None,
conf_haus,Press S for same or D for different houses. Press <SPACE> to continue.,0,1,1,1,17,0,17,0,,,,,,,,,49.90245267597493,None,50.10249448096147,None,50.3024842540035,None,50.50240276096156,None,space,0.17139140202198178,50.50240276096156,None,SR,1,2020_Oct_24_1808,configural_featural,2020.2.4,None,
conf_haus,Press S for same or D for different houses. Press <SPACE> to continue.,0,1,1,1,18,0,18,0,,,,,,,,,50.702361046976876,None,50.90258100896608,None,51.102358422009274,None,51.302447961992584,None,space,0.45167470700107515,51.302447961992584,None,SR,1,2020_Oct_24_1808,configural_featural,2020.2.4,None,
conf_haus,Press S for same or D for different houses. Press <SPACE> to continue.,0,1,1,1,19,0,19,0,,,,,,,,,51.76917861599941,None,51.96931267000036,None,52.16918927500956,None,52.3691389169544,None,space,0.22805446095298976,52.3691389169544,None,SR,1,2020_Oct_24_1808,configural_featural,2020.2.4,None,
conf_haus,Press S for same or D for different houses. Press <SPACE> to continue.,0,1,1,1,20,0,20,0,,,,,,,,,52.61864661495201,None,52.81833356700372,None,53.01876269298373,None,53.219107212964445,None,space,0.8062196930404752,53.219107212964445,None,SR,1,2020_Oct_24_1808,configural_featural,2020.2.4,None,
conf_haus,Press S for same or D for different houses. Press <SPACE> to continue.,0,1,1,1,21,0,21,0,,,,,,,,,54.05213930696482,None,54.25235557695851,None,54.452369470964186,None,54.65233393100789,None,space,1.845482037984766,54.65233393100789,None,SR,1,2020_Oct_24_1808,configural_featural,2020.2.4,None,
conf_haus,Press S for same or D for different houses. Press <SPACE> to continue.,0,1,1,1,22,0,22,0,,,,,,,,,56.519380476966035,None,56.71909696300281,None,56.91933127300581,None,57.11934314499376,None,space,0.41777450701920316,57.11934314499376,None,SR,1,2020_Oct_24_1808,configural_featural,2020.2.4,None,
conf_haus,Press S for same or D for different houses. Press <SPACE> to continue.,0,1,1,1,23,0,23,0,,,,,,,,,57.55267331597861,None,57.75257792096818,None,57.952616342983674,None,58.15235957695404,None,space,0.38818850996904075,58.15235957695404,None,SR,1,2020_Oct_24_1808,configural_featural,2020.2.4,None,
feat_face,Press S for same or D for different faces. Press <SPACE> to continue.,0,2,2,2,0,0,0,0,,,,,,,,,58.569144496985245,None,58.76936013496015,None,58.96911435597576,None,59.16935401898809,None,space,0.29458230698946863,59.16935401898809,None,SR,1,2020_Oct_24_1808,configural_featural,2020.2.4,None,
feat_face,Press S for same or D for different faces. Press <SPACE> to continue.,0,2,2,2,1,0,1,0,,,,,,,,,59.485668162989896,None,59.68579881399637,None,59.88586299598683,None,60.08602842700202,None,space,0.05983570701209828,60.08602842700202,None,SR,1,2020_Oct_24_1808,configural_featural,2020.2.4,None,
feat_face,Press S for same or D for different faces. Press <SPACE> to continue.,0,2,2,2,2,0,2,0,,,,,,,,,60.1691396899987,None,60.36937637295341,None,60.569342607981525,None,60.76932520698756,None,space,0.7658684279886074,60.76932520698756,None,SR,1,2020_Oct_24_1808,configural_featural,2020.2.4,None,
feat_face,Press S for same or D for different faces. Press <SPACE> to continue.,0,2,2,2,3,0,3,0,,,,,,,,,61.55249701498542,None,61.752727715997025,None,61.952666234981734,None,62.15269850700861,None,space,0.10619234602199867,62.15269850700861,None,SR,1,2020_Oct_24_1808,configural_featural,2020.2.4,None,
feat_face,Press S for same or D for different faces. Press <SPACE> to continue.,0,2,2,2,4,0,4,0,,,,,,,,,62.28538717800984,None,62.485994034970645,None,62.68597193498863,None,62.88616757997079,None,space,0.10394913301570341,62.88616757997079,None,SR,1,2020_Oct_24_1808,configural_featural,2020.2.4,None,
feat_face,Press S for same or D for different faces. Press <SPACE> to continue.,0,2,2,2,5,0,5,0,,,,,,,,,63.019161998992786,None,63.21922154596541,None,63.4193301309715,None,63.619189083983656,None,space,0.010272758023347706,63.619189083983656,None,SR,1,2020_Oct_24_1808,configural_featural,2020.2.4,None,
feat_face,Press S for same or D for different faces. Press <SPACE> to continue.,0,2,2,2,6,0,6,0,,,,,,,,,63.65211680700304,None,63.85267995996401,None,64.05271746200742,None,64.25268494995544,None,space,0.11485087597975507,64.25268494995544,None,SR,1,2020_Oct_24_1808,configural_featural,2020.2.4,None,
feat_face,Press S for same or D for different faces. Press <SPACE> to continue.,0,2,2,2,7,0,7,0,,,,,,,,,64.38584307796555,None,64.5858335729572,None,64.78606738796225,None,64.98596591199748,None,space,0.1035572369582951,64.98596591199748,None,SR,1,2020_Oct_24_1808,configural_featural,2020.2.4,None,
feat_face,Press S for same or D for different faces. Press <SPACE> to continue.,0,2,2,2,8,0,8,0,,,,,,,,,65.11918098898605,None,65.3193921779748,None,65.51940014900174,None,65.71941502497066,None,space,2.8590580570162274,65.71941502497066,None,SR,1,2020_Oct_24_1808,configural_featural,2020.2.4,None,
feat_face,Press S for same or D for different faces. Press <SPACE> to continue.,0,2,2,2,9,0,9,0,,,,,,,,,68.60249854298308,None,68.8027772049536,None,69.00265001296066,None,69.20275417598896,None,space,1.3687583170249127,69.20275417598896,None,SR,1,2020_Oct_24_1808,configural_featural,2020.2.4,None,
feat_face,Press S for same or D for different faces. Press <SPACE> to continue.,0,2,2,2,10,0,10,0,,,,,,,,,70.60255566897104,None,70.80267696100054,None,71.00279731297633,None,71.2029270720086,None,space,0.6135584919829853,71.2029270720086,None,SR,1,2020_Oct_24_1808,configural_featural,2020.2.4,None,
feat_face,Press S for same or D for different faces. Press <SPACE> to continue.,0,2,2,2,11,0,11,0,,,,,,,,,71.8358205310069,None,72.03612970199902,None,72.23615040100412,None,72.4361164830043,None,space,0.2821050579659641,72.4361164830043,None,SR,1,2020_Oct_24_1808,configural_featural,2020.2.4,None,
feat_face,Press S for same or D for different faces. Press <SPACE> to continue.,0,2,2,2,12,0,12,0,,,,,,,,,72.73584984696936,None,72.93603720498504,None,73.13596852996852,None,73.33627244696254,None,space,0.14991393795935437,73.33627244696254,None,SR,1,2020_Oct_24_1808,configural_featural,2020.2.4,None,
feat_face,Press S for same or D for different faces. Press <SPACE> to continue.,0,2,2,2,13,0,13,0,,,,,,,,,73.50256062700646,None,73.70275548496284,None,73.90277421299834,None,74.10282225097762,None,space,0.09922368900151923,74.10282225097762,None,SR,1,2020_Oct_24_1808,configural_featural,2020.2.4,None,
feat_face,Press S for same or D for different faces. Press <SPACE> to continue.,0,2,2,2,14,0,14,0,,,,,,,,,74.2193840490072,None,74.41954410000471,None,74.6194507489563,None,74.81952034001006,None,space,0.0742635180358775,74.81952034001006,None,SR,1,2020_Oct_24_1808,configural_featural,2020.2.4,None,
feat_face,Press S for same or D for different faces. Press <SPACE> to continue.,0,2,2,2,15,0,15,0,,,,,,,,,74.9188267099671,None,75.11953578097746,None,75.31949080497725,None,75.51953246898483,None,space,0.07192856096662581,75.51953246898483,None,SR,1,2020_Oct_24_1808,configural_featural,2020.2.4,None,
feat_face,Press S for same or D for different faces. Press <SPACE> to continue.,0,2,2,2,16,0,16,0,,,,,,,,,75.61925152497133,None,75.81951787899015,None,76.01925170596223,None,76.2191707919701,None,space,0.6028237990103662,76.2191707919701,None,SR,1,2020_Oct_24_1808,configural_featural,2020.2.4,None,
feat_face,Press S for same or D for different faces. Press <SPACE> to continue.,0,2,2,2,17,0,17,0,,,,,,,,,76.85224232496694,None,77.05291053996189,None,77.25278982199961,None,77.45284622296458,None,space,0.14295611099805683,77.45284622296458,None,SR,1,2020_Oct_24_1808,configural_featural,2020.2.4,None,
feat_face,Press S for same or D for different faces. Press <SPACE> to continue.,0,2,2,2,18,0,18,0,,,,,,,,,77.61923790496076,None,77.81965118198423,None,78.01953488995787,None,78.21955753699876,None,space,0.13990383897908032,78.21955753699876,None,SR,1,2020_Oct_24_1808,configural_featural,2020.2.4,None,
feat_face,Press S for same or D for different faces. Press <SPACE> to continue.,0,2,2,2,19,0,19,0,,,,,,,,,78.3861314089736,None,78.58613681799034,None,78.78622874000575,None,78.98624983296031,None,space,0.08856360497884452,78.98624983296031,None,SR,1,2020_Oct_24_1808,configural_featural,2020.2.4,None,
feat_face,Press S for same or D for different faces. Press <SPACE> to continue.,0,2,2,2,20,0,20,0,,,,,,,,,79.10282896400895,None,79.30283283395693,None,79.50256575795356,None,79.70286577695515,None,space,0.19011145003605634,79.70286577695515,None,SR,1,2020_Oct_24_1808,configural_featural,2020.2.4,None,
feat_face,Press S for same or D for different faces. Press <SPACE> to continue.,0,2,2,2,21,0,21,0,,,,,,,,,79.9193112369976,None,80.1193523319671,None,80.31939148798119,None,80.51955047895899,None,space,0.23895440704654902,80.51955047895899,None,SR,1,2020_Oct_24_1808,configural_featural,2020.2.4,None,
feat_face,Press S for same or D for different faces. Press <SPACE> to continue.,0,2,2,2,22,0,22,0,,,,,,,,,80.78553611895768,None,80.98629296396393,None,81.18627165898215,None,81.38619609700982,None,space,0.16332550102379173,81.38619609700982,None,SR,1,2020_Oct_24_1808,configural_featural,2020.2.4,None,
feat_face,Press S for same or D for different faces. Press <SPACE> to continue.,0,2,2,2,23,0,23,0,,,,,,,,,81.56966639799066,None,81.7695611929521,None,81.96952428098302,None,82.16964867996285,None,space,0.09715010999934748,82.16964867996285,None,SR,1,2020_Oct_24_1808,configural_featural,2020.2.4,None,
feat_haus,Press S for same or D for different houses. Press <SPACE> to continue.,0,3,3,3,0,0,0,0,,,,,,,,,82.28589406696847,None,82.48629684298066,None,82.6859073539963,None,82.88634308899054,None,space,0.5596918420051225,82.88634308899054,None,SR,1,2020_Oct_24_1808,configural_featural,2020.2.4,None,
feat_haus,Press S for same or D for different houses. Press <SPACE> to continue.,0,3,3,3,1,0,1,0,,,,,,,,,83.46944872598397,None,83.66964697896037,None,83.8695897939615,None,84.06961831799708,None,space,0.02524631196865812,84.06961831799708,None,SR,1,2020_Oct_24_1808,configural_featural,2020.2.4,None,
feat_haus,Press S for same or D for different houses. Press <SPACE> to continue.,0,3,3,3,2,0,2,0,,,,,,,,,84.11947731697,None,84.31959691498196,None,84.5195901079569,None,84.71966581698507,None,space,0.11654817598173395,84.71966581698507,None,SR,1,2020_Oct_24_1808,configural_featural,2020.2.4,None,
feat_haus,Press S for same or D for different houses. Press <SPACE> to continue.,0,3,3,3,3,0,3,0,,,,,,,,,84.8527611559839,None,85.05288764997385,None,85.25291021697922,None,85.45293060300173,None,space,0.0063366040121763945,85.45293060300173,None,SR,1,2020_Oct_24_1808,configural_featural,2020.2.4,None,
feat_haus,Press S for same or D for different houses. Press <SPACE> to continue.,0,3,3,3,4,0,4,0,,,,,,,,,85.48622894298751,None,85.68611112301005,None,85.88620260998141,None,86.08604788198136,None,space,0.21170992602128536,86.08604788198136,None,SR,1,2020_Oct_24_1808,configural_featural,2020.2.4,None,
feat_haus,Press S for same or D for different houses. Press <SPACE> to continue.,0,3,3,3,5,0,5,0,,,,,,,,,86.31944843195379,None,86.51944887900027,None,86.71923215995776,None,86.91948063700693,None,space,0.15306488401256502,86.91948063700693,None,SR,1,2020_Oct_24_1808,configural_featural,2020.2.4,None,
feat_haus,Press S for same or D for different houses. Press <SPACE> to continue.,0,3,3,3,6,0,6,0,,,,,,,,,87.10300730896415,None,87.30287665396463,None,87.50293711898848,None,87.70279815199319,None,space,0.10794175299815834,87.70279815199319,None,SR,1,2020_Oct_24_1808,configural_featural,2020.2.4,None,
feat_haus,Press S for same or D for different houses. Press <SPACE> to continue.,0,3,3,3,7,0,7,0,,,,,,,,,87.8361209089635,None,88.03605171199888,None,88.23633344296832,None,88.43633353698533,None,space,0.005791651958134025,88.43633353698533,None,SR,1,2020_Oct_24_1808,configural_featural,2020.2.4,None,
feat_haus,Press S for same or D for different houses. Press <SPACE> to continue.,0,3,3,3,8,0,8,0,,,,,,,,,88.4694961310015,None,88.66965439700289,None,88.86946412897669,None,89.06947724096244,None,space,0.3760915350285359,89.06947724096244,None,SR,1,2020_Oct_24_1808,configural_featural,2020.2.4,None,
feat_haus,Press S for same or D for different houses. Press <SPACE> to continue.,0,3,3,3,9,0,9,0,,,,,,,,,89.46946499799378,None,89.66948558198055,None,89.86950180097483,None,90.06952609395375,None,space,0.01758082496235147,90.06952609395375,None,SR,1,2020_Oct_24_1808,configural_featural,2020.2.4,None,
feat_haus,Press S for same or D for different houses. Press <SPACE> to continue.,0,3,3,3,10,0,10,0,,,,,,,,,90.10274268896319,None,90.30212299100822,None,90.50294023397146,None,90.70291081495816,None,space,0.1430478830006905,90.70291081495816,None,SR,1,2020_Oct_24_1808,configural_featural,2020.2.4,None,
feat_haus,Press S for same or D for different houses. Press <SPACE> to continue.,0,3,3,3,11,0,11,0,,,,,,,,,90.86964389798231,None,91.06957077898551,None,91.26965084299445,None,91.46963363897521,None,space,0.4927488330285996,91.46963363897521,None,SR,1,2020_Oct_24_1808,configural_featural,2020.2.4,None,
feat_haus,Press S for same or D for different houses. Press <SPACE> to continue.,0,3,3,3,12,0,12,0,,,,,,,,,91.9864045639988,None,92.18636999599403,None,92.38634490396362,None,92.58632416697219,None,space,0.4069925199728459,92.58632416697219,None,SR,1,2020_Oct_24_1808,configural_featural,2020.2.4,None,
feat_haus,Press S for same or D for different houses. Press <SPACE> to continue.,0,3,3,3,13,0,13,0,,,,,,,,,93.01951726299012,None,93.21940993698081,None,93.41965137200896,None,93.6196729989606,None,space,0.20621426502475515,93.6196729989606,None,SR,1,2020_Oct_24_1808,configural_featural,2020.2.4,None,
feat_haus,Press S for same or D for different houses. Press <SPACE> to continue.,0,3,3,3,14,0,14,0,,,,,,,,,93.85294709098525,None,94.05306059599388,None,94.2529559849645,None,94.45235319499625,None,space,0.6854069140390493,94.45235319499625,None,SR,1,2020_Oct_24_1808,configural_featural,2020.2.4,None,
,,,,,,,,,,,,,,,,,,95.16935261199251,None,95.36966664600186,None,95.56969431100879,None,,,,,,,,,,,,,
